timestamp,ax,ay,az,gx,gy,gz
221861,0.253295898,0.96472168,0.210327148,81.29882813,14.83154297,19.47021484
221887,0.318603516,0.87109375,0.164916992,34.54589844,31.55517578,14.89257813
221913,0.474975586,0.880493164,0.184814453,26.97753906,24.59716797,-1.037597656
221939,0.541992188,0.766357422,0.107910156,3.723144531,31.43310547,-1.037597656
221966,0.236206055,0.842407227,0.708740234,-28.19824219,45.28808594,-15.31982422
221993,-0.029296875,1.049560547,0.661865234,-16.17431641,19.04296875,-12.75634766
222019,0.155761719,1.390625,0.405395508,-73.18115234,-3.784179688,-21.17919922
222045,0.030029297,1.067016602,0.566040039,-117.0043945,-32.04345703,-18.61572266
222071,0.080810547,0.699951172,0.565673828,-164.4287109,-59.38720703,-29.54101563
222097,-0.001464844,0.775512695,0.964477539,-129.5776367,-76.35498047,-6.530761719
222124,0.235595703,0.657470703,0.779418945,-76.29394531,-85.63232422,7.934570313
222150,0.391357422,0.888061523,0.502929688,-32.2265625,-80.99365234,5.554199219
222176,0.538208008,0.764892578,0.318115234,-43.70117188,-74.58496094,2.197265625
222202,0.630981445,0.775756836,0.078613281,-42.66357422,-54.07714844,1.892089844
222228,0.676391602,0.806152344,-0.113037109,-53.22265625,-20.26367188,3.784179688
222255,0.556152344,0.918334961,0.056884766,-36.07177734,43.70117188,25.20751953
222281,0.559082031,0.688354492,0.180175781,-36.43798828,92.95654297,42.35839844
222307,0.146606445,0.618530273,0.825195313,9.399414063,167.7856445,50.78125
222333,-0.193725586,0.504760742,1.231567383,21.17919922,137.4511719,61.34033203
222359,-0.922241211,0.26574707,2.626342773,109.4970703,-75.92773438,5.737304688
222386,0.03112793,0.759277344,1.278564453,13.12255859,-39.42871094,5.981445313
222412,0.179077148,0.288452148,0.491943359,-15.07568359,-51.39160156,-18.00537109
222438,-0.053100586,0.67980957,0.894897461,-3.601074219,-86.36474609,-20.14160156
222464,0.173461914,0.847045898,0.824707031,-23.01025391,-109.0087891,-28.86962891
222490,0.401245117,0.763061523,0.351196289,-18.12744141,-117.1875,-31.12792969
222517,0.505859375,0.765380859,0.16809082,16.29638672,-105.1635742,-29.05273438
222543,0.541870117,0.845581055,0.083007813,28.01513672,-84.10644531,-21.72851563
222569,0.640625,0.805419922,-0.192626953,20.38574219,-54.07714844,-11.04736328
222595,0.651977539,0.763183594,-0.175048828,15.99121094,-16.35742188,-8.178710938
222622,0.578735352,0.812255859,-0.047241211,17.63916016,16.78466797,2.136230469
222648,0.545288086,0.808105469,0.128540039,6.103515625,62.74414063,20.32470703
222674,0.470336914,0.740600586,0.291137695,-2.563476563,106.1401367,31.37207031
222700,0.325317383,0.695922852,0.458984375,7.019042969,144.6533203,45.16601563
222726,-0.880737305,0.444335938,3.045410156,16.41845703,196.5332031,31.43310547
222752,-0.051635742,-0.041259766,1.680908203,25.45166016,-37.47558594,38.81835938
222779,0.091064453,0.640869141,2.079956055,22.64404297,65.97900391,14.16015625
222805,0.238525391,0.753173828,0.92578125,47.72949219,26.00097656,-29.41894531
222831,0.144165039,0.756591797,0.483398438,2.868652344,-10.43701172,-28.80859375
222857,0.087768555,0.837768555,0.860595703,-13.12255859,-56.03027344,-16.17431641
222883,0.189819336,0.970703125,0.885375977,-10.25390625,-96.00830078,-16.23535156
222909,0.353515625,0.82824707,0.5078125,-6.34765625,-106.0791016,-9.887695313
222936,0.438354492,0.743041992,0.395141602,1.220703125,-106.3842773,-5.615234375
222962,0.489990234,0.730957031,0.268920898,5.493164063,-92.83447266,-3.662109375
222988,0.622558594,0.717651367,0.01953125,-8.30078125,-68.48144531,-0.671386719
223014,0.698364258,0.694580078,-0.118286133,-10.49804688,-31.06689453,-1.037597656
223040,0.717895508,0.712158203,-0.104980469,-2.746582031,4.8828125,2.44140625
223067,0.67590332,0.734863281,0.0078125,1.220703125,64.88037109,15.56396484
223093,0.463623047,0.761352539,0.303588867,12.75634766,118.2250977,26.3671875
223119,0.336669922,0.87878418,0.513671875,10.62011719,140.5639648,34.97314453
223145,0.099243164,0.750976563,0.685668945,-24.59716797,-1.953125,25.81787109
223171,-0.147094727,1.158691406,2.071166992,77.45361328,-9.155273438,11.41357422
223197,0.30065918,0.981201172,1.158691406,-6.896972656,-23.98681641,-10.07080078
223224,0.497924805,0.424438477,0.311523438,-46.32568359,-0.854492188,-40.83251953
223250,0.037597656,0.694458008,1.096557617,-18.79882813,-50.04882813,-13.06152344
223277,0.067016602,0.940551758,1.11315918,-4.272460938,-81.78710938,-24.65820313
223303,0.380004883,0.694824219,0.629394531,-13.85498047,-116.2109375,-28.99169922
223329,0.473144531,0.703613281,0.39453125,9.27734375,-117.3095703,-32.2265625
223355,0.537353516,0.766235352,0.23034668,12.87841797,-105.8959961,-28.38134766
223381,0.713256836,0.778198242,-0.108276367,5.065917969,-77.33154297,-24.10888672
223408,0.817138672,0.81262207,-0.278442383,2.380371094,-28.56445313,-11.90185547
223434,0.803833008,0.849365234,-0.276855469,1.098632813,33.38623047,7.751464844
223460,0.718261719,0.810791016,-0.096435547,0.854492188,76.53808594,19.95849609
223486,0.521728516,0.767456055,0.247192383,11.47460938,125.793457,36.74316406
223512,0.344360352,0.753173828,0.560058594,21.484375,151.7333984,44.06738281
223539,-1.197509766,0.377563477,2.836791992,25.26855469,143.8598633,28.13720703
223565,-0.782836914,-0.266479492,3.577392578,68.66455078,29.23583984,38.33007813
223591,0.347045898,0.74621582,1.17590332,35.40039063,16.96777344,1.647949219
223617,0.42578125,0.723632813,0.502807617,4.8828125,13.00048828,-27.40478516
223643,0.230102539,0.47277832,0.640625,-34.79003906,-31.25,-22.82714844
223669,0.151123047,0.958374023,0.929199219,-20.14160156,-72.20458984,-28.38134766
223696,0.338745117,0.909179688,0.672241211,-25.93994141,-89.29443359,-28.3203125
223722,0.480712891,0.809448242,0.378295898,-21.484375,-101.1352539,-22.58300781
223748,0.537963867,0.80090332,0.244384766,-13.30566406,-92.34619141,-12.20703125
223774,0.604125977,0.745117188,0.111816406,-12.32910156,-78.00292969,-8.728027344
223800,0.693969727,0.685424805,-0.056640625,-7.934570313,-44.61669922,-2.624511719
223827,0.729125977,0.677124023,-0.069824219,-1.342773438,0.366210938,2.197265625
223853,0.710449219,0.672485352,0.041259766,1.708984375,34.66796875,5.554199219
223879,0.637329102,0.680297852,0.268798828,8.911132813,81.54296875,12.26806641
223905,0.307128906,0.826416016,0.622924805,24.59716797,117.7368164,21.17919922
223931,0.375,0.769775391,0.751708984,22.21679688,132.2631836,15.68603516
223957,0.308105469,0.292602539,1.093017578,-40.58837891,-12.26806641,48.21777344
223984,0.137207031,0.745117188,1.645507813,36.74316406,-43.21289063,5.126953125
224010,0.361328125,0.904907227,0.949951172,-2.197265625,-7.446289063,-25.45166016
224036,0.326660156,0.536865234,0.461547852,-46.75292969,-44.37255859,-33.87451172
224062,0.184082031,0.692993164,0.934448242,-11.71875,-77.75878906,-24.10888672
224088,0.294921875,0.820556641,0.704711914,-8.30078125,-93.13964844,-32.53173828
224115,0.518676758,0.69934082,0.343261719,-7.263183594,-95.27587891,-36.31591797
224141,0.630126953,0.770507813,0.14074707,6.8359375,-81.11572266,-29.41894531
224167,0.699829102,0.808349609,-0.080322266,0.427246094,-55.78613281,-22.52197266
224193,0.791259766,0.797729492,-0.182495117,-0.366210938,-30.15136719,-14.77050781
224219,0.781616211,0.835083008,-0.169189453,3.295898438,15.80810547,0.183105469
224246,0.685302734,0.843017578,0.016479492,7.568359375,67.99316406,17.15087891
224272,0.590942383,0.782592773,0.215209961,15.80810547,102.2949219,28.19824219
224298,0.287719727,0.779052734,0.557250977,26.42822266,138.2446289,39.30664063
224324,0.233764648,0.889160156,1.074462891,-21.05712891,7.629394531,18.37158203
224350,-0.684326172,-0.359619141,2.659545898,3.90625,12.45117188,38.26904297
224376,0.588378906,0.297973633,1.307250977,4.089355469,-19.89746094,19.22607422
224403,0.203125,0.840332031,0.482666016,17.21191406,30.2734375,-36.49902344
224429,0.229125977,0.529785156,0.700927734,-39.30664063,-33.38623047,-29.35791016
224455,0.187744141,0.917358398,0.909667969,-13.61083984,-76.53808594,-30.82275391
224481,0.464111328,0.850952148,0.491699219,-18.31054688,-96.74072266,-29.23583984
224507,0.569091797,0.777954102,0.284545898,-11.59667969,-97.71728516,-27.09960938
224533,0.622802734,0.825195313,0.128540039,-3.295898438,-88.62304688,-17.15087891
224559,0.715332031,0.798339844,-0.067382813,-7.263183594,-63.4765625,-5.981445313
224586,0.76184082,0.770751953,-0.153320313,-6.958007813,-38.87939453,14.83154297
224612,0.723144531,0.744628906,-0.125,-2.014160156,9.765625,12.51220703
224638,0.658447266,0.695068359,-0.07434082,0.549316406,62.92724609,17.63916016
224664,0.576538086,0.681030273,0.053344727,24.04785156,113.8305664,21.54541016
224691,0.401367188,0.690917969,0.458251953,48.76708984,147.8881836,28.38134766
224717,-1.022705078,0.853881836,2.824829102,42.35839844,142.5170898,27.46582031
224743,-0.997924805,-0.224365234,3.553466797,29.296875,63.59863281,32.04345703
224770,0.164794922,0.537475586,1.785766602,-10.62011719,-36.56005859,20.08056641
224796,0.307983398,0.7578125,0.713256836,30.15136719,30.33447266,-18.73779297
224822,0.13659668,0.488647461,0.822998047,-36.56005859,-55.84716797,-24.96337891
224848,0.140380859,0.759277344,0.903686523,-16.54052734,-80.56640625,-28.13720703
224874,0.383666992,0.846557617,0.521728516,-15.50292969,-100.1586914,-35.52246094
224901,0.54284668,0.795043945,0.193115234,-9.948730469,-99.12109375,-33.08105469
224927,0.614135742,0.834350586,0.109741211,-4.577636719,-93.75,-26.00097656
224953,0.696166992,0.833496094,-0.082519531,-2.868652344,-72.265625,-16.23535156
224979,0.811279297,0.746337891,-0.1875,-0.366210938,-34.11865234,-4.699707031
225005,0.747802734,0.803222656,-0.199462891,4.455566406,-1.647949219,4.760742188
225031,0.704467773,0.772705078,-0.091674805,4.333496094,51.87988281,13.79394531
225058,0.606811523,0.737792969,0.120361328,11.84082031,104.4311523,23.19335938
225084,0.465820313,0.737548828,0.345458984,24.10888672,153.6254883,35.27832031
225110,0.651245117,0.567138672,0.435791016,21.91162109,165.1000977,38.51318359
225136,0.217041016,0.839233398,0.822753906,-68.48144531,-62.62207031,27.83203125
225162,-0.14440918,0.321044922,2.068725586,7.995605469,-13.79394531,2.197265625
225188,0.383544922,0.738647461,1.00012207,38.75732422,28.68652344,-8.239746094
225215,0.255004883,0.478515625,0.533691406,-48.40087891,-45.95947266,-21.60644531
225241,0.146484375,0.633056641,0.908203125,-22.94921875,-83.55712891,-26.12304688
225267,0.266235352,0.827148438,0.729492188,-13.06152344,-99.67041016,-31.06689453
225293,0.512939453,0.737426758,0.281616211,-3.90625,-105.6518555,-35.33935547
225319,0.637207031,0.757202148,0.121704102,7.629394531,-101.7456055,-28.86962891
225346,0.672119141,0.797729492,-0.011962891,12.6953125,-83.86230469,-23.80371094
225372,0.805908203,0.806518555,-0.228271484,6.103515625,-48.58398438,-16.17431641
225398,0.799316406,0.833374023,-0.276855469,3.356933594,1.159667969,-3.845214844
225424,0.72668457,0.857299805,-0.203735352,3.479003906,44.73876953,7.690429688
225451,0.620849609,0.798706055,0.028442383,12.45117188,109.6191406,23.25439453
225477,0.272338867,0.83190918,0.445678711,34.79003906,164.6118164,38.69628906
225503,0.322509766,0.782592773,0.669921875,26.48925781,183.1054688,44.86083984
225529,0.975830078,0.852905273,-0.860595703,-77.75878906,-31.43310547,49.8046875
225555,0.120239258,0.51965332,1.848999023,-8.361816406,-64.75830078,23.68164063
225582,0.213500977,0.925537109,1.130004883,38.57421875,23.92578125,-29.47998047
225608,0.255493164,0.406860352,0.667480469,-37.78076172,-20.93505859,-26.85546875
225634,0.221801758,0.627197266,0.966796875,-24.84130859,-89.29443359,-26.06201172
225660,0.299804688,0.807495117,0.731811523,-18.73779297,-106.3232422,-38.26904297
225686,0.539794922,0.725219727,0.318115234,-10.19287109,-103.9428711,-40.52734375
225713,0.608276367,0.816894531,0.156494141,12.87841797,-92.65136719,-32.53173828
225739,0.696289063,0.863769531,-0.043334961,9.765625,-73.66943359,-22.82714844
225765,0.747436523,0.832519531,-0.116699219,3.845214844,-54.38232422,-16.29638672
225792,0.710205078,0.844726563,-0.182373047,-0.549316406,-10.43701172,-0.122070313
225818,0.67565918,0.826049805,-0.142578125,-3.723144531,49.19433594,15.80810547
225844,0.660644531,0.746582031,-0.016845703,-2.258300781,85.51025391,24.90234375
225870,0.494506836,0.642333984,0.339233398,9.033203125,134.9487305,35.03417969
225896,0.067016602,0.672485352,1.051147461,26.91650391,174.0112305,36.86523438
225923,0.298706055,1.060058594,1.178710938,-6.713867188,2.624511719,2.563476563
225949,-0.396362305,0.875488281,2.145019531,77.39257813,21.17919922,5.615234375
225975,0.265625,0.637817383,0.862426758,6.8359375,-2.624511719,-11.77978516
226001,0.179931641,0.751953125,0.712646484,-18.12744141,-41.13769531,-31.92138672
226027,0.231933594,0.62878418,0.909790039,-54.93164063,-103.6987305,-20.99609375
226053,0.39440918,0.721313477,0.519897461,-18.43261719,-108.9477539,-31.18896484
226080,0.535400391,0.67956543,0.310424805,-1.708984375,-102.2949219,-36.43798828
226106,0.640380859,0.792358398,0.052490234,14.09912109,-89.66064453,-34.42382813
226132,0.776733398,0.845214844,-0.175415039,9.216308594,-60.05859375,-22.94921875
226158,0.829589844,0.8515625,-0.277832031,9.643554688,-14.83154297,-7.995605469
226185,0.770751953,0.864624023,-0.23815918,10.07080078,24.04785156,5.615234375
226211,0.672485352,0.797729492,-0.015991211,8.422851563,79.77294922,21.17919922
226237,0.569213867,0.73046875,0.262084961,13.36669922,120.8496094,33.38623047
226263,0.372558594,0.653808594,0.560791016,19.04296875,141.2353516,37.35351563
226289,0.185058594,0.723266602,1.025268555,19.83642578,163.8183594,42.72460938
226316,-0.172729492,0.019165039,1.533569336,-51.14746094,-31.86035156,27.34375
226342,-0.335205078,0.83996582,1.953613281,23.25439453,-14.46533203,-9.033203125
226368,0.259033203,0.703613281,0.755859375,15.19775391,2.075195313,-17.33398438
226394,0.182006836,0.494384766,0.793945313,-31.12792969,-76.84326172,-30.94482422
226420,0.208374023,0.716186523,0.864501953,-6.896972656,-89.29443359,-31.12792969
226447,0.415039063,0.790283203,0.542602539,-2.380371094,-104.7363281,-43.45703125
226473,0.564453125,0.831176758,0.207519531,3.601074219,-104.7363281,-40.34423828
226499,0.633789063,0.875244141,0.06237793,3.234863281,-98.08349609,-33.14208984
226525,0.711914063,0.875,-0.140258789,3.723144531,-70.61767578,-18.12744141
226551,0.754150391,0.852539063,-0.297851563,2.014160156,-23.37646484,-1.525878906
226577,0.728393555,0.814941406,-0.245239258,-0.305175781,18.37158203,10.13183594
226604,0.669555664,0.727661133,0.001586914,-3.234863281,79.52880859,23.49853516
226630,0.51550293,0.728759766,0.240722656,-4.943847656,118.5913086,31.18896484
226656,0.386474609,0.703979492,0.469238281,9.704589844,149.2919922,35.09521484
226682,-0.421020508,0.088989258,2.676269531,9.826660156,142.3950195,35.03417969
226708,-1.088134766,-0.794311523,3.962524414,47.11914063,46.38671875,40.40527344
226735,-0.052612305,0.629882813,1.518920898,20.20263672,-15.74707031,5.126953125
226761,0.231811523,0.770019531,0.689697266,5.187988281,3.662109375,-20.38574219
226787,0.178466797,0.446655273,0.735839844,-58.59375,-66.58935547,-23.19335938
226813,0.166748047,0.823730469,0.930297852,-15.625,-87.40234375,-23.25439453
226839,0.398071289,0.797973633,0.615234375,-1.586914063,-100.5859375,-34.24072266
226866,0.586303711,0.77331543,0.192749023,1.892089844,-110.9619141,-35.82763672
226892,0.696166992,0.828613281,-0.046875,5.981445313,-99.67041016,-24.47509766
226918,0.756469727,0.837890625,-0.207641602,3.234863281,-79.52880859,-17.15087891
226944,0.77355957,0.862182617,-0.381347656,5.493164063,-25.57373047,-0.122070313
226970,0.732177734,0.810424805,-0.3046875,12.93945313,42.35839844,15.31982422
226996,0.673828125,0.767822266,-0.125610352,14.70947266,81.17675781,20.81298828
227023,0.536376953,0.633544922,0.237792969,7.507324219,119.6289063,22.76611328
227049,0.284179688,0.656738281,0.702148438,21.484375,154.296875,22.82714844
227075,-0.193603516,0.330200195,2.153808594,23.80371094,158.6303711,26.85546875
227101,-0.799316406,-0.305786133,3.027709961,-28.25927734,-1.342773438,30.63964844
227127,0.213012695,0.455322266,1.537475586,2.136230469,-12.6953125,4.638671875
227154,0.375976563,0.89074707,0.712890625,30.2734375,9.460449219,-14.6484375
227180,0.188476563,0.548583984,0.762207031,-49.74365234,-50.53710938,-24.10888672
227206,0.197387695,0.799682617,0.913696289,-27.16064453,-92.10205078,-25.57373047
227232,0.405395508,0.764282227,0.594970703,-14.28222656,-108.5205078,-33.44726563
227258,0.490234375,0.732421875,0.314697266,-1.281738281,-115.2954102,-33.14208984
227285,0.598999023,0.784912109,0.058959961,4.39453125,-108.0932617,-28.56445313
227311,0.701416016,0.803955078,-0.110717773,6.469726563,-71.83837891,-19.34814453
227337,0.795043945,0.850463867,-0.336303711,8.850097656,-34.48486328,-12.02392578
227363,0.744506836,0.846313477,-0.295043945,7.446289063,36.43798828,9.033203125
227389,0.673095703,0.818115234,-0.067749023,15.50292969,101.8676758,23.80371094
227415,0.569702148,0.787719727,0.136108398,26.00097656,132.5073242,32.95898438
227442,0.28503418,0.665283203,0.731201172,31.25,160.7666016,40.71044922
227468,0.179321289,0.936279297,1.399902344,2.197265625,-28.93066406,-7.8125
227494,-0.630493164,-0.247070313,2.675537109,76.84326172,33.63037109,36.1328125
227520,0.313964844,0.632324219,1.084472656,26.91650391,-7.32421875,0.793457031
227547,0.230224609,0.567626953,0.604370117,-24.90234375,-62.01171875,-32.89794922
227573,0.137084961,0.606201172,0.855712891,-40.46630859,-87.09716797,-31.79931641
227599,0.3125,0.764160156,0.633544922,-34.05761719,-115.1123047,-41.50390625
227625,0.530761719,0.829833984,0.211547852,-15.01464844,-111.5112305,-49.19433594
227651,0.631835938,0.858642578,-0.004516602,-7.934570313,-108.3984375,-44.98291016
227677,0.723266602,0.94128418,-0.222412109,5.37109375,-78.06396484,-28.38134766
227704,0.756225586,0.926391602,-0.345581055,4.150390625,-24.84130859,-11.16943359
227730,0.713500977,0.859863281,-0.305297852,-1.586914063,17.45605469,11.90185547
227756,0.635620117,0.831054688,-0.170043945,-12.75634766,74.82910156,20.14160156
227782,0.526489258,0.796630859,0.11340332,-13.00048828,120.6665039,30.63964844
227808,0.421386719,0.721313477,0.388793945,11.16943359,163.7573242,41.07666016
227835,-0.054443359,0.680297852,1.301879883,27.52685547,182.9833984,51.20849609
227861,-0.138549805,0.601318359,1.446289063,-9.582519531,-23.74267578,22.64404297
227887,-0.254760742,1.036376953,1.625732422,-15.31982422,-14.95361328,16.47949219
227913,0.325439453,0.596801758,0.74597168,3.784179688,-11.71875,-12.02392578
227939,0.164672852,0.580444336,0.772094727,-61.34033203,-68.60351563,-30.45654297
227966,0.186523438,0.795288086,0.903320313,-46.50878906,-103.6376953,-32.65380859
227992,0.403320313,0.806030273,0.562744141,-35.58349609,-112.4267578,-39.24560547
228018,0.57409668,0.744140625,0.225463867,-10.25390625,-105.46875,-41.32080078
228044,0.65625,0.826049805,-0.0078125,13.12255859,-84.41162109,-31.00585938
228070,0.724365234,0.849365234,-0.142456055,16.29638672,-61.95068359,-23.68164063
228096,0.760620117,0.844238281,-0.252685547,12.45117188,-16.90673828,-10.31494141
228123,0.670776367,0.878662109,-0.205932617,1.831054688,42.78564453,11.90185547
228149,0.631713867,0.829589844,-0.116210938,-2.868652344,83.92333984,22.70507813
228175,0.47644043,0.704345703,0.177368164,15.625,137.6953125,36.98730469
228201,0.036499023,0.709228516,0.696899414,42.23632813,166.9921875,44.98291016
228227,-0.960449219,0.49609375,2.476074219,30.39550781,115.7226563,34.48486328
228253,-0.684936523,0.260253906,2.710449219,119.2626953,72.44873047,32.40966797
228280,0.350708008,0.762573242,1.052856445,33.02001953,-20.69091797,-21.30126953
228306,0.186401367,0.736328125,0.484375,-8.056640625,-11.47460938,-37.04833984
228332,0.164672852,0.565551758,0.904296875,-69.15283203,-82.15332031,-23.98681641
228358,0.2734375,0.843139648,0.715576172,-26.12304688,-102.722168,-32.95898438
228385,0.450927734,0.821533203,0.435302734,-9.399414063,-105.5297852,-42.78564453
228411,0.559448242,0.801025391,0.1875,-2.746582031,-104.2480469,-41.44287109
228437,0.633056641,0.868286133,-0.057617188,2.44140625,-83.06884766,-25.51269531
228463,0.691894531,0.863525391,-0.216308594,1.708984375,-41.56494141,-10.19287109
228489,0.697387695,0.831665039,-0.253295898,-1.403808594,-4.821777344,1.403808594
228516,0.672729492,0.827270508,-0.198486328,-8.911132813,56.21337891,16.41845703
228542,0.545288086,0.817504883,0.074707031,-3.784179688,110.7788086,29.72412109
228568,0.432250977,0.741699219,0.343017578,5.676269531,138.4887695,37.96386719
228594,0.022827148,0.744750977,1.100463867,26.73339844,177.9785156,48.58398438
228620,0.099121094,1.021118164,0.828735352,-16.54052734,-76.53808594,-5.310058594
228646,-0.394165039,0.355102539,2.275024414,67.56591797,11.16943359,1.46484375
228673,0.276367188,0.72265625,1.020874023,-0.671386719,-28.74755859,-14.28222656
228699,0.168212891,0.504516602,0.614013672,-75.1953125,-40.34423828,-38.33007813
228726,0.098754883,0.588623047,0.872192383,-81.42089844,-88.43994141,-38.45214844
228752,0.247192383,0.819335938,0.818115234,-47.60742188,-111.5722656,-45.83740234
228778,0.506958008,0.804199219,0.341674805,-19.10400391,-116.6992188,-50.59814453
228804,0.56640625,0.842773438,0.154296875,-4.028320313,-95.21484375,-37.84179688
228830,0.686645508,0.84387207,-0.058227539,7.385253906,-86.18164063,-26.97753906
228856,0.715820313,0.834594727,-0.17578125,13.36669922,-44.43359375,-8.728027344
228883,0.727539063,0.794799805,-0.21862793,2.44140625,9.704589844,12.26806641
228909,0.699951172,0.644287109,-0.134643555,0.305175781,49.56054688,21.78955078
228935,0.572753906,0.579833984,0.159667969,9.765625,108.0322266,24.65820313
228961,0.395507813,0.716796875,0.726318359,36.01074219,150.2685547,33.203125
228987,0.033813477,0.741333008,1.363525391,38.87939453,163.4521484,45.77636719
229014,-1.799438477,-0.686401367,3.999511719,61.76757813,125.0610352,54.80957031
229040,0.141967773,1.085571289,1.678588867,52.49023438,-39.61181641,-1.403808594
229066,0.245239258,0.558349609,0.770751953,-25.08544922,-29.60205078,-6.713867188
229092,0.211547852,0.764648438,0.60534668,-106.9946289,-72.38769531,-25.26855469
229119,0.227416992,0.649536133,0.989013672,-54.19921875,-98.87695313,-13.12255859
229145,0.345581055,0.819335938,0.731811523,-14.34326172,-105.3466797,-12.93945313
229171,0.558105469,0.671508789,0.346069336,17.02880859,-105.9570313,-15.13671875
229197,0.624267578,0.693969727,0.114257813,22.15576172,-87.21923828,-10.13183594
229223,0.633666992,0.736328125,0.000854492,18.61572266,-63.35449219,-7.873535156
229249,0.720947266,0.700073242,-0.143554688,8.544921875,-18.79882813,-1.647949219
229275,0.666503906,0.673950195,-0.101318359,4.821777344,29.41894531,3.356933594
229302,0.623046875,0.70703125,-0.04296875,7.019042969,59.32617188,9.155273438
229328,0.568725586,0.707275391,0.151611328,22.70507813,107.9711914,17.08984375
229354,0.362182617,0.71081543,0.512329102,32.65380859,140.625,26.30615234
229380,0.164306641,0.756469727,0.979003906,30.33447266,158.7524414,42.17529297
229406,0.564819336,0.99621582,0.793701172,64.33105469,-17.45605469,6.408691406
229432,-0.042114258,0.930786133,1.758911133,74.95117188,0.854492188,2.014160156
229458,0.445800781,0.684814453,0.862915039,5.981445313,-22.39990234,3.90625
229484,0.303955078,0.94543457,0.353027344,-47.36328125,-30.21240234,-31.73828125
229510,0.283935547,0.723144531,0.813842773,-67.26074219,-68.54248047,-7.446289063
229536,0.371704102,0.819946289,0.719238281,-29.84619141,-79.16259766,-9.033203125
229563,0.479980469,0.798706055,0.42565918,5.554199219,-81.42089844,-16.47949219
229589,0.610717773,0.778686523,0.215209961,17.70019531,-81.54296875,-11.41357422
229615,0.66015625,0.799560547,0.03503418,30.33447266,-50.59814453,-4.8828125
229641,0.732666016,0.740844727,-0.175170898,27.83203125,-19.95849609,2.014160156
229667,0.669433594,0.75402832,-0.163818359,15.625,30.94482422,11.35253906
229694,0.606689453,0.775756836,0.008666992,2.990722656,82.09228516,22.58300781
229720,0.50390625,0.728149414,0.225097656,1.770019531,112.487793,29.296875
229746,0.212768555,0.739501953,0.75402832,6.530761719,148.9257813,41.44287109
229772,0.670898438,0.823852539,1.209716797,28.13720703,7.629394531,11.71875
229798,-0.364868164,0.714599609,2.028930664,132.3242188,38.69628906,17.70019531
229824,0.427368164,0.669189453,0.912597656,29.96826172,-30.70068359,8.178710938
229851,0.345947266,0.872192383,0.313232422,-35.33935547,-18.92089844,-30.94482422
229877,0.232788086,0.854003906,0.541015625,-86.05957031,-47.05810547,-12.87841797
229903,0.247192383,0.727783203,0.948852539,-48.27880859,-62.19482422,-6.713867188
229929,0.399536133,0.857421875,0.610229492,5.493164063,-84.04541016,-10.7421875
229955,0.463378906,0.798339844,0.422729492,6.286621094,-93.56689453,-11.10839844
229981,0.489135742,0.733276367,0.326171875,9.643554688,-89.47753906,-7.385253906
230008,0.571655273,0.730834961,0.089111328,-1.098632813,-68.48144531,-5.065917969
230034,0.63269043,0.732543945,-0.050292969,-9.216308594,-47.05810547,-3.662109375
230060,0.720092773,0.737060547,-0.159301758,-13.48876953,-5.615234375,1.953125
230086,0.736694336,0.818359375,-0.177978516,-10.80322266,39.30664063,8.666992188
230113,0.66784668,0.849487305,-0.096557617,-6.774902344,70.61767578,20.20263672
230139,0.525878906,0.814941406,0.228881836,8.972167969,121.8261719,30.94482422
230165,0.221923828,0.842041016,0.809692383,16.47949219,152.1606445,56.51855469
230191,0.05456543,0.711425781,0.982177734,21.24023438,33.44726563,23.4375
230217,-0.320068359,0.605957031,2.556152344,133.972168,5.859375,16.29638672
230243,0.380737305,0.958374023,1.151000977,25.69580078,-34.11865234,10.13183594
230269,0.341430664,0.617431641,0.631591797,-48.64501953,-17.94433594,-44.37255859
230296,0.221191406,0.710205078,0.500488281,-82.58056641,-56.27441406,-24.04785156
230322,0.283935547,0.794311523,0.908691406,-44.73876953,-90.14892578,-27.22167969
230348,0.430908203,0.812133789,0.507324219,-10.98632813,-100.5249023,-34.54589844
230374,0.561401367,0.743286133,0.305541992,-1.46484375,-104.1870117,-34.60693359
230400,0.628295898,0.774291992,0.110839844,10.37597656,-92.7734375,-26.00097656
230426,0.709350586,0.821899414,-0.126831055,12.93945313,-55.17578125,-18.18847656
230452,0.73059082,0.814208984,-0.192749023,6.652832031,-20.81298828,-7.507324219
230479,0.67980957,0.780395508,-0.188598633,-10.31494141,35.27832031,8.056640625
230505,0.604980469,0.719848633,-0.004394531,-17.88330078,87.82958984,16.96777344
230532,0.516723633,0.640258789,0.247436523,-6.8359375,121.0327148,25.57373047
230557,0.243164063,0.621337891,0.690185547,8.605957031,155.7617188,32.77587891
230584,-0.461669922,0.155395508,2.248657227,49.37744141,-14.89257813,7.080078125
230610,-0.368774414,1.041992188,2.129394531,86.36474609,35.70556641,-3.112792969
230636,0.312255859,0.665405273,1.041503906,-3.784179688,-12.57324219,-25.26855469
230662,0.348876953,0.730957031,0.349487305,-58.71582031,-45.34912109,-50.35400391
230688,0.216796875,0.782958984,0.660644531,-66.52832031,-62.31689453,-32.59277344
230715,0.26184082,0.811035156,0.957885742,-30.94482422,-73.18115234,-26.30615234
230741,0.424194336,0.796264648,0.563842773,4.211425781,-88.80615234,-34.72900391
230767,0.496826172,0.779541016,0.360229492,7.995605469,-97.29003906,-27.83203125
230793,0.626342773,0.757202148,0.139160156,8.972167969,-93.38378906,-25.32958984
230819,0.737060547,0.793945313,-0.114868164,11.47460938,-67.87109375,-19.28710938
230845,0.768554688,0.823486328,-0.222167969,11.96289063,-20.87402344,-12.45117188
230872,0.705810547,0.862792969,-0.247070313,10.13183594,22.52197266,-1.46484375
230898,0.639648438,0.813110352,-0.024536133,18.61572266,97.83935547,19.16503906
230924,0.462280273,0.742431641,0.373291016,9.338378906,144.2260742,40.28320313
230951,0.239135742,0.737304688,0.851074219,-6.286621094,154.4189453,60.79101563
230977,0.696533203,0.939208984,0.125732422,-17.21191406,17.82226563,8.483886719
231003,-0.445068359,0.562866211,1.897949219,44.43359375,-2.319335938,21.72851563
231029,0.271240234,0.979980469,0.912231445,8.544921875,-27.46582031,5.432128906
231055,0.306762695,0.57019043,0.360961914,-14.03808594,-28.74755859,-22.27783203
231081,0.123168945,0.643676758,0.955078125,-30.45654297,-61.40136719,-10.68115234
231107,0.23449707,0.802856445,0.90637207,-26.42822266,-86.18164063,-24.90234375
231133,0.466186523,0.709838867,0.5234375,-18.85986328,-97.90039063,-34.60693359
231159,0.611206055,0.724853516,0.207641602,-3.295898438,-97.83935547,-36.49902344
231186,0.657470703,0.768066406,0.076782227,7.385253906,-84.59472656,-31.00585938
231212,0.694213867,0.830932617,-0.133911133,16.54052734,-43.88427734,-21.17919922
231238,0.698730469,0.844848633,-0.235473633,7.995605469,11.77978516,-5.798339844
231264,0.642944336,0.832397461,-0.155273438,-1.342773438,52.24609375,7.690429688
231291,0.492431641,0.780517578,0.175170898,-7.141113281,109.4970703,25.93994141
231317,0.215332031,0.798339844,0.603149414,-4.577636719,143.1884766,39.55078125
231343,0.162353516,0.635864258,1.079833984,-9.033203125,144.4091797,37.65869141
231369,-1.337890625,-0.487548828,3.731079102,74.58496094,98.81591797,48.95019531
231395,0.072265625,1.079345703,1.387573242,24.90234375,-45.47119141,-12.93945313
231421,0.379882813,0.45703125,0.587036133,-34.60693359,-17.08984375,-31.43310547
231448,0.194213867,0.680541992,0.645629883,-53.52783203,-42.90771484,-21.91162109
231474,0.189453125,0.786743164,1.001098633,-30.51757813,-76.78222656,-18.61572266
231500,0.351074219,0.831420898,0.736938477,-5.554199219,-89.29443359,-27.70996094
231526,0.510620117,0.695678711,0.424194336,6.164550781,-95.88623047,-26.55029297
231552,0.563964844,0.760742188,0.221801758,25.45166016,-88.8671875,-22.58300781
231579,0.663208008,0.807861328,-0.034179688,19.65332031,-63.59863281,-17.21191406
231605,0.730224609,0.777709961,-0.157592773,11.47460938,-39.97802734,-14.09912109
231631,0.672851563,0.83581543,-0.161865234,6.164550781,14.03808594,2.136230469
231657,0.647460938,0.806152344,-0.096313477,-4.272460938,69.94628906,16.66259766
231683,0.547119141,0.770141602,0.076660156,-0.061035156,108.1542969,25.81787109
231709,0.178955078,0.875976563,0.569458008,11.29150391,149.9023438,42.17529297
231736,-0.740844727,-0.138183594,2.471679688,-5.249023438,85.57128906,41.44287109
231762,-1.589355469,-0.827270508,3.996826172,83.06884766,119.2016602,64.02587891
231789,0.198608398,1.021728516,1.222900391,9.033203125,-39.24560547,-13.54980469
231815,0.396972656,0.563842773,0.339233398,-52.97851563,-24.84130859,-41.25976563
231841,0.133422852,0.543701172,0.847900391,-65.24658203,-63.65966797,-13.54980469
231867,0.193603516,0.815185547,0.981811523,-18.73779297,-84.35058594,-26.30615234
231893,0.432739258,0.765380859,0.563354492,0.732421875,-96.13037109,-36.37695313
231920,0.50390625,0.709960938,0.389282227,23.49853516,-99.30419922,-34.60693359
231946,0.532836914,0.83996582,0.186889648,23.74267578,-93.38378906,-28.80859375
231972,0.647216797,0.831665039,-0.041381836,7.385253906,-68.66455078,-22.4609375
231998,0.697143555,0.813232422,-0.20324707,-1.098632813,-22.64404297,-7.995605469
232024,0.678100586,0.819458008,-0.210693359,-3.112792969,15.80810547,3.90625
232051,0.640625,0.815917969,-0.118652344,-9.155273438,69.3359375,18.49365234
232077,0.482421875,0.827148438,0.187133789,1.953125,119.0795898,33.99658203
232103,0.314697266,0.756225586,0.46484375,7.080078125,141.8457031,43.9453125
232129,0.192993164,0.535766602,1.125732422,20.81298828,151.6113281,60.30273438
232155,-1.260131836,-0.755981445,3.848388672,16.29638672,74.58496094,40.40527344
232181,-0.641235352,0.877197266,1.97265625,37.53662109,-19.95849609,8.728027344
232207,0.661010742,0.566040039,0.478027344,-45.8984375,-41.74804688,-7.019042969
232234,0.188720703,0.662841797,0.629760742,-51.57470703,-37.78076172,-26.85546875
232260,0.188476563,0.708740234,0.9765625,-48.15673828,-66.83349609,-11.41357422
232286,0.398925781,0.725219727,0.709838867,-15.93017578,-97.22900391,-27.22167969
232312,0.532836914,0.645385742,0.397338867,16.29638672,-101.0742188,-32.83691406
232338,0.545776367,0.722290039,0.248657227,29.47998047,-95.88623047,-33.08105469
232364,0.644042969,0.774536133,0.007446289,22.76611328,-78.43017578,-27.64892578
232390,0.707519531,0.829223633,-0.173828125,12.39013672,-35.03417969,-18.31054688
232416,0.675537109,0.831176758,-0.17980957,4.760742188,2.746582031,-8.117675781
232442,0.648925781,0.822265625,-0.11340332,-6.774902344,54.99267578,11.65771484
232468,0.595581055,0.729370117,0.046508789,3.662109375,102.5390625,25.63476563
232495,0.419067383,0.764892578,0.454711914,20.69091797,127.1362305,33.50830078
232521,-0.000854492,0.852661133,1.187866211,-8.483886719,141.2963867,49.68261719
232547,-1.377441406,-1.162719727,3.999511719,35.46142578,89.90478516,59.38720703
232573,-0.072265625,0.704589844,1.98059082,29.47998047,-7.8125,-7.263183594
232599,0.466430664,0.653320313,0.685302734,-18.00537109,-13.42773438,-9.704589844
232626,0.33215332,0.45300293,0.508544922,-59.50927734,-43.9453125,-24.90234375
232652,0.197143555,0.779418945,0.864135742,-32.2265625,-63.84277344,-18.5546875
232678,0.325195313,0.74609375,0.867431641,-16.96777344,-79.16259766,-23.31542969
232704,0.452270508,0.736816406,0.442504883,15.01464844,-93.01757813,-27.70996094
232730,0.519042969,0.743896484,0.249755859,21.97265625,-87.09716797,-20.99609375
232756,0.609375,0.73034668,0.100708008,16.72363281,-73.97460938,-21.05712891
232783,0.725830078,0.776367188,-0.133422852,5.004882813,-42.96875,-15.07568359
232808,0.734985352,0.802612305,-0.1484375,-2.9296875,8.544921875,-2.563476563
232835,0.692138672,0.823120117,-0.158325195,-8.422851563,47.11914063,9.033203125
232861,0.583740234,0.78125,0.004394531,-6.530761719,101.4404297,22.76611328
232888,0.276489258,0.756103516,0.491333008,11.29150391,146.0571289,33.56933594
232914,0.051391602,0.672851563,1.08605957,13.671875,150.390625,47.91259766
232940,-1.505859375,-0.842285156,3.999511719,108.0932617,91.67480469,41.38183594
232966,0.280883789,0.942871094,1.437133789,27.28271484,-18.18847656,-15.68603516
232993,0.530395508,0.464477539,0.490112305,-56.09130859,-26.85546875,-19.04296875
233019,0.166259766,0.603027344,0.735717773,-86.18164063,-55.41992188,-27.70996094
233045,0.251220703,0.751586914,1.045288086,-31.49414063,-82.64160156,-20.75195313
233071,0.413330078,0.755615234,0.710327148,5.493164063,-93.20068359,-37.23144531
233097,0.538574219,0.734863281,0.340332031,37.53662109,-99.609375,-33.26416016
233124,0.630126953,0.834472656,0.084960938,37.29248047,-85.20507813,-27.46582031
233150,0.657958984,0.858276367,-0.074829102,15.01464844,-45.04394531,-15.68603516
233176,0.687133789,0.897705078,-0.280517578,-0.915527344,-9.887695313,-4.8828125
233202,0.615966797,0.935424805,-0.226928711,-16.35742188,51.69677734,16.84570313
233228,0.558227539,0.897216797,-0.003051758,-0.366210938,112.6708984,40.22216797
233254,0.379882813,0.799072266,0.491210938,15.56396484,140.3198242,53.83300781
233280,0.188720703,0.567260742,1.144775391,14.09912109,136.5966797,69.58007813
233307,-1.237426758,-0.855957031,3.870117188,53.22265625,14.89257813,33.81347656
233333,-0.165771484,0.71081543,1.693481445,19.65332031,-5.615234375,7.32421875
233359,0.473510742,0.46862793,0.67199707,-27.34375,-23.80371094,-5.493164063
233385,0.246704102,0.467163086,0.638916016,-64.33105469,-51.87988281,-31.49414063
233411,0.203735352,0.632202148,0.940307617,-47.18017578,-66.89453125,-30.70068359
233438,0.395019531,0.791381836,0.729736328,-5.859375,-89.59960938,-42.60253906
233465,0.546386719,0.752929688,0.322509766,17.94433594,-95.27587891,-43.27392578
233491,0.598632813,0.80871582,0.141601563,29.35791016,-88.13476563,-38.69628906
233517,0.647460938,0.883789063,-0.030517578,28.3203125,-67.68798828,-31.18896484
233543,0.713134766,0.935058594,-0.228759766,11.10839844,-20.5078125,-14.83154297
233569,0.67980957,0.939697266,-0.238769531,-2.380371094,41.13769531,10.07080078
233595,0.607055664,0.873657227,-0.096801758,-19.40917969,76.29394531,23.25439453
233622,0.486328125,0.727294922,0.19140625,-10.55908203,126.2207031,38.20800781
233648,0.232788086,0.710205078,0.486572266,6.225585938,158.0810547,53.22265625
233674,-0.868286133,-0.140014648,2.557250977,-8.850097656,82.45849609,32.04345703
233700,-0.212036133,0.383789063,2.408081055,83.55712891,2.502441406,6.774902344
233726,0.132568359,0.758911133,1.698852539,5.065917969,-22.88818359,-14.83154297
233752,0.371337891,0.582519531,0.690063477,-22.70507813,33.14208984,-34.1796875
233778,0.209716797,0.669311523,0.77734375,-61.09619141,-50.65917969,-25.69580078
233805,0.225219727,0.816162109,0.944580078,-21.72851563,-73.42529297,-26.24511719
233831,0.392456055,0.743408203,0.679443359,1.098632813,-81.60400391,-32.83691406
233857,0.49987793,0.732421875,0.381835938,22.58300781,-92.46826172,-28.68652344
233884,0.582275391,0.801879883,0.196166992,19.95849609,-82.76367188,-25.02441406
233910,0.663574219,0.799682617,0.056762695,12.14599609,-66.22314453,-21.78955078
233936,0.674316406,0.851074219,-0.093505859,7.385253906,-24.29199219,-8.972167969
233962,0.644287109,0.848632813,-0.114624023,-5.859375,23.62060547,5.981445313
233988,0.603271484,0.869262695,-0.0625,-9.887695313,55.84716797,18.49365234
234014,0.500244141,0.738891602,0.230224609,-2.380371094,106.4453125,34.05761719
234040,0.198608398,0.744262695,0.719116211,8.911132813,141.6015625,47.36328125
234067,-0.303588867,0.036376953,2.502807617,1.586914063,129.1503906,52.18505859
234093,-0.432617188,0.109741211,2.818237305,87.76855469,26.67236328,24.16992188
234119,0.221069336,0.835205078,1.288330078,11.84082031,-17.76123047,-3.723144531
234145,0.345458984,0.552490234,0.583007813,-24.90234375,3.784179688,-23.98681641
234171,0.208251953,0.465454102,0.775390625,-62.25585938,-54.6875,-23.37646484
234197,0.204833984,0.815917969,0.965698242,-18.67675781,-74.03564453,-22.15576172
234224,0.43371582,0.776489258,0.665893555,14.52636719,-84.59472656,-33.38623047
234250,0.549682617,0.793823242,0.322387695,16.29638672,-91.12548828,-27.16064453
234276,0.611450195,0.851806641,0.147949219,16.47949219,-75.98876953,-17.51708984
234303,0.712280273,0.821289063,-0.072021484,4.638671875,-43.70117188,-6.713867188
234329,0.693359375,0.8046875,-0.123046875,-5.676269531,-15.19775391,1.831054688
234355,0.592529297,0.823730469,0.037841797,-14.03808594,34.48486328,16.05224609
234381,0.563720703,0.720092773,0.234130859,-19.89746094,83.12988281,26.73339844
234407,0.501586914,0.662231445,0.381469727,-7.019042969,109.1308594,36.43798828
234433,0.279907227,0.563598633,0.838989258,-19.65332031,117.9199219,48.15673828
234460,-0.244628906,0.278686523,1.867553711,-6.225585938,-11.23046875,-7.690429688
234486,-0.308959961,0.450317383,2.06652832,41.38183594,-1.403808594,8.361816406
234512,0.332641602,0.575317383,0.967163086,-25.57373047,-29.11376953,0.549316406
234538,0.264038086,0.43737793,0.618041992,-78.67431641,-47.79052734,-29.41894531
234564,0.117431641,0.489501953,1.128173828,-62.56103516,-65.97900391,-17.94433594
234591,0.312866211,0.681274414,0.943725586,-29.35791016,-86.42578125,-30.51757813
234617,0.47253418,0.66394043,0.462036133,-8.056640625,-95.94726563,-32.95898438
234643,0.568969727,0.696777344,0.291381836,3.051757813,-94.66552734,-29.96826172
234669,0.658081055,0.762695313,0.125,3.540039063,-79.52880859,-23.4375
234695,0.744506836,0.844604492,-0.080078125,7.629394531,-41.9921875,-4.699707031
234722,0.76159668,0.821411133,-0.143188477,-4.028320313,7.202148438,12.93945313
234748,0.664916992,0.760742188,0.028076172,-14.95361328,39.61181641,25.20751953
234774,0.531616211,0.669189453,0.339111328,-28.74755859,82.45849609,39.12353516
234800,0.37890625,0.587646484,0.556274414,-13.671875,112.4267578,50.41503906
234826,0.254150391,0.300537109,1.040283203,-0.671386719,112.5488281,52.42919922
234852,-0.078979492,-0.49987793,1.695556641,17.15087891,77.57568359,23.74267578
234879,-0.194702148,0.685058594,2.014892578,68.60351563,-17.63916016,-4.638671875
234905,0.302978516,0.479736328,0.846801758,-35.40039063,-78.24707031,-17.94433594
234931,0.358398438,0.46875,0.748413086,-74.15771484,-75.56152344,-36.62109375
234957,0.368896484,0.638061523,1.071289063,-44.18945313,-82.88574219,-25.93994141
234984,0.528442383,0.663330078,0.753295898,-31.25,-86.05957031,-31.18896484
235010,0.672119141,0.604492188,0.280639648,-15.38085938,-87.03613281,-28.01513672
235036,0.699584961,0.607910156,0.162841797,8.728027344,-71.65527344,-21.72851563
235062,0.731567383,0.670532227,0.002807617,28.74755859,-52.30712891,-14.34326172
235089,0.678222656,0.705932617,-0.058227539,45.04394531,-3.723144531,-2.685546875
235115,0.656616211,0.703857422,-0.014526367,34.72900391,49.68261719,13.24462891
235141,0.581542969,0.649047852,0.155883789,27.95410156,84.28955078,22.64404297
235167,0.342773438,0.670532227,0.590820313,29.11376953,122.1313477,34.91210938
235193,0.319946289,0.425170898,0.990234375,19.22607422,122.4975586,40.40527344
235219,-0.509277344,-0.536743164,2.577270508,50.35400391,40.22216797,-1.159667969
235246,-0.195678711,1.162109375,1.966674805,130.859375,-20.75195313,-12.26806641
235272,0.354858398,0.478637695,0.759277344,-25.57373047,-69.64111328,-44.67773438
235298,0.223876953,0.45703125,0.813964844,-17.51708984,-80.26123047,-22.39990234
235324,0.290771484,0.672485352,0.854736328,-14.40429688,-94.78759766,-26.18408203
235350,0.516845703,0.767578125,0.392578125,-8.850097656,-96.61865234,-40.22216797
235376,0.691162109,0.863769531,-0.020263672,10.68115234,-81.17675781,-33.38623047
235403,0.80090332,0.865478516,-0.148925781,23.13232422,-61.46240234,-26.00097656
235429,0.809082031,0.991088867,-0.325683594,30.33447266,-16.11328125,-6.713867188
235455,0.730834961,0.899414063,-0.269042969,10.49804688,36.86523438,13.85498047
235481,0.617431641,0.878662109,-0.07019043,2.136230469,72.63183594,28.3203125
235508,0.473632813,0.752075195,0.306030273,-1.525878906,113.2202148,43.82324219
235534,0.264404297,0.596069336,0.793701172,4.8828125,130.859375,48.27880859
235560,0.161621094,0.451171875,1.167602539,1.708984375,119.8730469,46.93603516
235586,-0.426269531,-0.686523438,2.789916992,73.85253906,-24.35302734,3.723144531
235612,0.242675781,0.490844727,1.41394043,37.53662109,-17.76123047,-5.432128906
235638,0.210083008,0.567749023,0.736083984,1.037597656,-52.97851563,-27.28271484
235665,0.076782227,0.508911133,0.975097656,-17.02880859,-74.70703125,-35.70556641
235691,0.255004883,0.690429688,0.831298828,-16.29638672,-104.7363281,-44.18945313
235717,0.404907227,0.743164063,0.498779297,-2.380371094,-110.4125977,-52.67333984
235743,0.623413086,0.83996582,0.1171875,13.48876953,-109.1918945,-51.39160156
235769,0.744995117,0.948730469,-0.197387695,28.38134766,-85.57128906,-42.23632813
235795,0.784057617,1.008178711,-0.350585938,30.39550781,-40.34423828,-20.81298828
235822,0.780761719,1.01953125,-0.397705078,9.826660156,1.525878906,-4.455566406
235848,0.6640625,1.005981445,-0.235351563,-11.71875,61.15722656,21.66748047
235874,0.607788086,0.918945313,0.043945313,-5.676269531,114.6850586,40.34423828
235901,0.471313477,0.79284668,0.298095703,4.516601563,138.1225586,47.18017578
235927,0.20324707,0.703491211,0.788208008,3.41796875,143.737793,53.7109375
235953,0.026489258,0.494384766,1.333862305,-13.00048828,112.9150391,48.58398438
235979,-0.171264648,0.645629883,1.920288086,-11.16943359,-37.71972656,-10.00976563
236005,0.002807617,0.67175293,1.682373047,41.19873047,-23.01025391,8.666992188
236031,0.215576172,0.541625977,0.680541992,-13.73291016,-70.92285156,-27.77099609
236058,0.132202148,0.454711914,0.776489258,-21.91162109,-72.02148438,-33.87451172
236084,0.225219727,0.710693359,0.747314453,-22.4609375,-99.06005859,-38.69628906
236110,0.442749023,0.865478516,0.384521484,-18.5546875,-109.7412109,-48.27880859
236136,0.584838867,0.910522461,0.129150391,-12.51220703,-108.0322266,-44.55566406
236162,0.729248047,0.9375,-0.102905273,4.211425781,-82.94677734,-33.02001953
236189,0.80859375,0.980102539,-0.299926758,8.605957031,-41.015625,-10.98632813
236215,0.798217773,0.940917969,-0.31628418,1.098632813,-2.746582031,4.272460938
236241,0.678955078,0.873779297,-0.177124023,-13.85498047,52.49023438,20.93505859
236267,0.542480469,0.783325195,0.125,-13.30566406,95.03173828,33.75244141
236293,0.48034668,0.715820313,0.335205078,5.065917969,117.2485352,40.64941406
236319,0.270629883,0.600830078,0.737670898,27.58789063,133.4228516,41.07666016
236346,-0.290893555,0.12109375,2.166748047,23.68164063,115.4785156,35.15625
236372,-0.970336914,0.05456543,3.111450195,68.96972656,16.47949219,28.50341797
236398,0.223876953,0.614746094,1.388183594,32.40966797,-39.12353516,-11.16943359
236424,0.279174805,0.487426758,0.753051758,-28.62548828,-69.45800781,-36.86523438
236450,0.127319336,0.603149414,0.896606445,-25.26855469,-91.55273438,-35.76660156
236476,0.291625977,0.754516602,0.736450195,-22.39990234,-104.6142578,-43.9453125
236503,0.454711914,0.905517578,0.337768555,-14.16015625,-111.2060547,-48.828125
236529,0.638427734,0.915039063,0.018066406,-5.920410156,-102.2338867,-39.18457031
236555,0.696777344,0.982910156,-0.115112305,4.8828125,-81.78710938,-27.34375
236581,0.778076172,1.000610352,-0.30456543,3.112792969,-37.59765625,-7.690429688
236607,0.743530273,0.915649414,-0.312744141,-3.41796875,18.37158203,14.09912109
236634,0.676635742,0.874633789,-0.171508789,-6.286621094,55.72509766,25.75683594
236660,0.549560547,0.807373047,0.046264648,-6.591796875,98.26660156,34.48486328
236686,0.354614258,0.699462891,0.415161133,0.9765625,118.4082031,43.39599609
236712,0.231079102,0.608154297,0.78894043,15.38085938,126.2817383,46.02050781
236739,0.093261719,0.546142578,1.160522461,25.08544922,109.6191406,34.30175781
236765,-0.579223633,0.282470703,1.742919922,5.065917969,50.17089844,11.96289063
236791,-0.362182617,0.35534668,2.368164063,24.10888672,-8.850097656,11.90185547
236817,0.102661133,0.643066406,1.131469727,26.79443359,-41.93115234,-6.896972656
236843,0.10949707,0.409179688,0.995483398,-0.732421875,-76.04980469,-33.32519531
236869,0.15637207,0.639160156,0.859863281,2.258300781,-96.74072266,-38.02490234
236896,0.376464844,0.778442383,0.498657227,-10.55908203,-114.5019531,-51.94091797
236922,0.543579102,0.943725586,0.093383789,-8.972167969,-111.0229492,-50.35400391
236948,0.687866211,0.993286133,-0.130004883,-2.807617188,-88.31787109,-35.58349609
236974,0.76171875,1.059204102,-0.302856445,3.601074219,-61.21826172,-20.38574219
237000,0.705444336,1.038330078,-0.312988281,-1.281738281,-8.972167969,5.493164063
237027,0.662719727,0.985107422,-0.186035156,-17.70019531,44.61669922,29.23583984
237053,0.583251953,0.856933594,-0.028320313,-26.3671875,73.73046875,40.34423828
237079,0.404663086,0.716552734,0.373168945,-22.21679688,109.9243164,50.72021484
237105,0.212768555,0.53918457,0.836791992,0.732421875,128.0517578,50.90332031
237131,0.070922852,0.509399414,1.276611328,16.6015625,122.253418,42.23632813
237158,0.191040039,0.639404297,1.304931641,1.159667969,0.732421875,-1.770019531
237184,-0.056152344,0.336425781,1.818603516,38.94042969,-2.502441406,13.00048828
237210,0.042236328,0.419067383,1.379394531,33.87451172,-18.61572266,-3.90625
237236,0.121337891,0.589111328,0.946289063,5.310058594,-81.48193359,-29.54101563
237262,0.305664063,0.643066406,0.653198242,-8.483886719,-105.3466797,-41.19873047
237288,0.393188477,0.748046875,0.442871094,-7.019042969,-108.8256836,-47.05810547
237314,0.51550293,0.875854492,0.089599609,-2.9296875,-99.06005859,-49.98779297
237341,0.697753906,0.952758789,-0.173461914,-2.075195313,-73.66943359,-36.56005859
237367,0.708129883,1.000732422,-0.243896484,3.967285156,-47.18017578,-23.07128906
237393,0.710205078,1.001464844,-0.242919922,1.403808594,2.319335938,-0.48828125
237419,0.629760742,0.94543457,-0.057373047,-4.577636719,52.42919922,20.32470703
237446,0.580688477,0.874267578,0.093139648,-5.004882813,79.52880859,34.05761719
237472,0.446411133,0.773803711,0.36706543,-2.624511719,107.4829102,38.87939453
237499,0.25390625,0.657836914,0.736694336,3.784179688,118.8964844,43.45703125
237525,0.215698242,0.491333008,1.026733398,5.310058594,108.215332,42.84667969
237551,-0.016601563,0.496704102,1.108154297,-20.01953125,50.04882813,12.45117188
237577,-0.192749023,-0.00793457,2.425292969,1.647949219,6.34765625,3.662109375
237603,0.16418457,0.666992188,1.108398438,41.80908203,-13.671875,-16.66259766
237629,0.186523438,0.655273438,0.77734375,-7.141113281,-40.52734375,-26.85546875
237655,0.155151367,0.625,0.921264648,-8.30078125,-81.0546875,-33.69140625
237682,0.363647461,0.779541016,0.573364258,-8.117675781,-91.67480469,-38.81835938
237708,0.466430664,0.817626953,0.315063477,-3.784179688,-86.48681641,-40.71044922
237734,0.616699219,0.888671875,0.073364258,0.793457031,-70.67871094,-31.73828125
237760,0.705810547,0.955444336,-0.110107422,4.028320313,-41.74804688,-15.80810547
237786,0.736450195,0.954589844,-0.151855469,4.699707031,-13.54980469,-2.868652344
237813,0.675537109,0.889892578,-0.073730469,2.9296875,35.58349609,16.29638672
237839,0.567993164,0.784667969,0.172241211,-0.549316406,76.11083984,30.70068359
237865,0.475952148,0.710083008,0.356811523,0.061035156,94.42138672,35.09521484
237891,0.222045898,0.671508789,0.709838867,11.84082031,110.9008789,39.73388672
237917,-0.17956543,0.211914063,1.573852539,13.18359375,100.6469727,35.58349609
237944,0.07043457,0.53125,1.152587891,-23.86474609,9.521484375,4.333496094
237970,-0.218017578,0.192016602,2.171020508,3.112792969,-13.36669922,6.469726563
237996,0.165527344,0.825317383,1.109741211,38.69628906,-4.211425781,-14.77050781
238022,0.185058594,0.39453125,0.872802734,-21.05712891,-31.18896484,-16.54052734
238048,0.119140625,0.538818359,1.010253906,1.159667969,-75.07324219,-33.81347656
238074,0.332641602,0.717285156,0.677368164,-7.385253906,-96.37451172,-46.50878906
238100,0.444091797,0.780761719,0.405761719,-10.49804688,-98.81591797,-51.39160156
238126,0.572021484,0.902587891,0.144165039,-5.554199219,-89.78271484,-44.61669922
238152,0.665649414,0.992431641,-0.037597656,3.784179688,-64.33105469,-27.46582031
238179,0.681152344,1.011474609,-0.141601563,5.615234375,-26.42822266,-7.507324219
238205,0.645874023,1.003540039,-0.138916016,4.760742188,3.967285156,7.263183594
238231,0.587890625,0.875244141,0.013183594,4.638671875,51.69677734,23.92578125
238257,0.442749023,0.797851563,0.347900391,23.92578125,96.80175781,43.76220703
238284,0.348999023,0.710571289,0.561401367,25.81787109,114.7460938,46.50878906
238310,0.192016602,0.603881836,0.836547852,6.34765625,107.1166992,47.48535156
238336,-0.576660156,0.171508789,1.95324707,-9.094238281,59.81445313,27.40478516
238362,-0.134277344,0.586547852,1.42956543,-23.62060547,-14.46533203,13.18359375
238388,-0.044677734,0.384033203,1.506591797,24.29199219,-14.70947266,7.8125
238415,0.056274414,0.501831055,1.032348633,6.042480469,-57.67822266,-28.68652344
238441,0.130737305,0.459716797,0.930053711,-17.94433594,-94.90966797,-35.33935547
238467,0.314331055,0.624755859,0.657348633,-15.86914063,-110.2294922,-49.56054688
238493,0.527832031,0.810668945,0.257324219,-2.075195313,-108.5205078,-62.07275391
238520,0.634277344,0.94543457,0.014160156,6.286621094,-91.796875,-51.45263672
238546,0.762817383,1.036376953,-0.218261719,14.40429688,-69.82421875,-37.17041016
238572,0.699584961,1.096923828,-0.253540039,22.70507813,-22.76611328,-9.094238281
238599,0.615722656,1.051147461,-0.196289063,9.033203125,34.24072266,20.62988281
238625,0.520507813,0.898803711,0.032348633,12.57324219,72.75390625,34.72900391
238651,0.46484375,0.732055664,0.271728516,39.79492188,117.3706055,45.53222656
238677,0.289916992,0.780761719,0.610107422,56.15234375,138.4277344,50.04882813
238703,0.169799805,0.659545898,0.875610352,51.57470703,131.2866211,46.08154297
238729,0.1171875,0.810424805,1.112182617,-5.554199219,-13.48876953,-1.281738281
238756,-0.096191406,0.512329102,2.28137207,-18.49365234,-36.01074219,19.34814453
238782,0.03527832,0.705810547,1.317871094,6.34765625,-24.96337891,4.699707031
238808,0.23425293,0.53918457,0.901611328,10.62011719,-30.76171875,-12.57324219
238834,0.183837891,0.527709961,0.893188477,-8.178710938,-83.25195313,-19.89746094
238860,0.291992188,0.777954102,0.635131836,-17.27294922,-103.0883789,-35.09521484
238886,0.462646484,0.800048828,0.262329102,-38.39111328,-107.6049805,-48.21777344
238913,0.589599609,0.899902344,0.005737305,-26.30615234,-90.39306641,-41.38183594
238939,0.631103516,0.969238281,-0.081665039,-12.32910156,-72.75390625,-30.70068359
238965,0.690917969,0.979125977,-0.211181641,-0.549316406,-36.68212891,-13.54980469
238991,0.64074707,0.917236328,-0.127685547,1.831054688,9.643554688,6.8359375
239017,0.577514648,0.888916016,0.027709961,-5.493164063,38.75732422,19.77539063
239044,0.554321289,0.734130859,0.326049805,-12.14599609,74.76806641,34.66796875
239070,0.415893555,0.697265625,0.458496094,10.07080078,108.7646484,36.31591797
239096,0.28112793,0.66796875,0.732299805,16.66259766,110.7788086,36.74316406
239122,-0.013061523,0.612792969,1.333496094,24.16992188,91.36962891,35.76660156
239149,-0.264770508,0.022216797,2.085571289,25.69580078,-6.896972656,15.99121094
239175,0.024902344,0.581665039,1.541992188,36.1328125,-14.6484375,0.427246094
239201,0.143310547,0.668945313,0.766235352,19.40917969,-42.11425781,-23.37646484
239227,0.216430664,0.60168457,0.760986328,-29.47998047,-82.88574219,-36.80419922
239253,0.265869141,0.742797852,0.594116211,-11.65771484,-99.42626953,-43.45703125
239279,0.492797852,0.888183594,0.308959961,-0.671386719,-98.99902344,-50.35400391
239305,0.647949219,0.909179688,-0.009887695,-7.385253906,-95.64208984,-46.44775391
239332,0.690551758,0.961181641,-0.147705078,3.90625,-70.25146484,-31.61621094
239358,0.676513672,0.996459961,-0.200805664,4.455566406,-43.27392578,-18.61572266
239384,0.613891602,0.957275391,-0.177490234,-3.845214844,4.760742188,2.807617188
239411,0.551513672,0.877563477,-0.019775391,-8.728027344,51.45263672,20.32470703
239437,0.499389648,0.810791016,0.13671875,-2.807617188,78.00292969,27.95410156
239463,0.381835938,0.694213867,0.492797852,23.13232422,119.934082,37.78076172
239489,0.104003906,0.707885742,0.969238281,43.9453125,137.512207,40.0390625
239516,0.030273438,0.716552734,1.378540039,35.52246094,129.2724609,25.390625
239542,0.067626953,0.547241211,0.989990234,-27.95410156,-18.31054688,7.690429688
239568,-0.024414063,0.554077148,1.579223633,35.82763672,5.126953125,14.46533203
239594,0.254638672,0.8046875,0.922851563,32.59277344,-22.03369141,-11.04736328
239620,0.224609375,0.732299805,0.724975586,-21.60644531,-80.01708984,-26.00097656
239646,0.284912109,0.731445313,0.662841797,-28.50341797,-104.4921875,-29.54101563
239673,0.393676758,0.783935547,0.457275391,-17.76123047,-102.6611328,-41.74804688
239699,0.489135742,0.860595703,0.170166016,-14.83154297,-98.75488281,-40.46630859
239725,0.647705078,0.867797852,-0.0625,-14.58740234,-86.48681641,-35.70556641
239751,0.673461914,0.935791016,-0.186523438,-4.760742188,-56.57958984,-25.26855469
239777,0.669921875,0.957885742,-0.195800781,0.732421875,-22.03369141,-10.86425781
239803,0.620727539,0.969482422,-0.138427734,-3.112792969,29.05273438,10.86425781
239830,0.555297852,0.845825195,0.052856445,-9.399414063,72.75390625,24.47509766
239856,0.45300293,0.780395508,0.27722168,-3.173828125,96.06933594,30.88378906
239882,0.244384766,0.740600586,0.732543945,14.58740234,124.8168945,37.35351563
239908,0.143432617,0.720825195,1.107543945,22.03369141,119.3237305,43.64013672
239935,-0.483398438,0.127319336,1.577880859,-0.610351563,68.84765625,21.54541016
239961,-0.140136719,0.457397461,1.798828125,48.03466797,12.45117188,14.58740234
239987,0.131347656,0.760620117,0.852050781,38.69628906,-24.78027344,-12.20703125
240013,0.21887207,0.628662109,0.673706055,-14.03808594,-54.07714844,-29.35791016
240039,0.209594727,0.606811523,0.788574219,-24.23095703,-89.29443359,-36.86523438
240065,0.335327148,0.837768555,0.493896484,-5.065917969,-98.02246094,-49.01123047
240092,0.46887207,0.890625,0.244750977,-3.90625,-98.14453125,-51.20849609
240118,0.626220703,0.941650391,-0.022705078,-3.784179688,-89.05029297,-47.91259766
240144,0.699462891,1.026367188,-0.210571289,2.9296875,-59.69238281,-30.33447266
240170,0.698242188,1.087524414,-0.319946289,-5.615234375,-7.507324219,-10.37597656
240196,0.641479492,1.033813477,-0.286132813,-5.187988281,35.40039063,8.544921875
240223,0.51574707,0.924682617,-0.045166016,3.845214844,91.36962891,28.80859375
240249,0.396728516,0.820068359,0.196899414,19.28710938,127.1972656,35.88867188
240275,0.190917969,0.713378906,0.679077148,34.97314453,142.3339844,37.47558594
240301,-0.074462891,0.637084961,1.356201172,33.75244141,123.3520508,43.33496094
240327,-0.800292969,0.001586914,2.701538086,55.05371094,-4.8828125,21.36230469
240354,-0.093261719,0.66015625,1.490844727,26.3671875,6.164550781,7.995605469
240380,0.101318359,0.812866211,0.600952148,15.56396484,-37.29248047,-23.68164063
240406,0.119018555,0.675048828,0.708251953,-52.85644531,-78.67431641,-40.0390625
240432,0.180786133,0.751220703,0.720336914,-43.27392578,-96.86279297,-42.05322266
240458,0.417236328,0.963134766,0.322143555,-18.49365234,-102.9052734,-53.77197266
240485,0.567871094,0.912841797,0.041748047,-21.60644531,-103.9428711,-51.51367188
240511,0.598144531,0.953369141,-0.054321289,-5.859375,-87.82958984,-43.64013672
240537,0.64440918,1.055175781,-0.249023438,8.544921875,-44.43359375,-24.10888672
240563,0.625976563,1.056396484,-0.277709961,-3.967285156,8.056640625,-11.29150391
240589,0.496704102,1.043457031,-0.124633789,-9.643554688,41.38183594,3.41796875
240616,0.365722656,0.987915039,0.127929688,-16.29638672,81.42089844,28.68652344
240642,0.246826172,0.739257813,0.529785156,-9.765625,115.4785156,40.71044922
240668,0.079467773,0.654418945,0.836914063,7.080078125,128.1738281,41.68701172
240694,0.108642578,0.575073242,1.028686523,16.90673828,96.49658203,32.10449219
240720,-0.240722656,0.719238281,1.300048828,31.98242188,-0.305175781,-0.732421875
240747,0.24609375,0.549194336,1.018432617,24.04785156,-32.53173828,-16.54052734
240773,0.148925781,0.691650391,0.665649414,2.197265625,-35.94970703,-30.70068359
240799,0.128173828,0.746704102,0.736328125,-17.70019531,-55.60302734,-47.97363281
240825,0.181518555,0.894042969,0.644775391,-12.93945313,-73.97460938,-50.78125
240851,0.267944336,0.909545898,0.495727539,-3.845214844,-76.96533203,-51.08642578
240878,0.337280273,0.936401367,0.284423828,3.540039063,-74.64599609,-45.71533203
240904,0.336181641,0.913696289,0.264038086,5.798339844,-64.453125,-38.02490234
240930,0.342285156,0.926635742,0.217285156,2.624511719,-55.23681641,-30.70068359
240956,0.45324707,0.905273438,0.067626953,-8.666992188,-39.18457031,-25.14648438
240982,0.488525391,0.862426758,0.021484375,-7.873535156,-13.73291016,-18.37158203
241008,0.487182617,0.894165039,0.026489258,-1.647949219,6.896972656,-14.09912109
241035,0.411987305,0.954345703,0.055053711,-0.793457031,38.14697266,-8.666992188
241061,0.306152344,0.993896484,0.134643555,1.892089844,72.32666016,3.234863281
241087,0.236938477,0.96081543,0.255737305,12.20703125,97.16796875,13.97705078
241113,-0.000366211,1.000488281,0.563964844,19.10400391,121.2768555,26.42822266
241139,-0.080322266,0.752685547,1.077026367,3.112792969,101.7456055,36.92626953
241166,-0.160644531,0.746704102,0.899658203,-6.164550781,80.99365234,27.52685547
241192,-0.281860352,0.616577148,1.53112793,38.02490234,-2.746582031,10.07080078
241218,0.131347656,0.767089844,0.555786133,17.39501953,-29.96826172,-9.704589844
241244,0.073730469,0.799072266,0.504150391,-25.81787109,-41.25976563,-28.13720703
241270,-0.017822266,0.78112793,0.886108398,-26.18408203,-65.97900391,-27.28271484
241296,0.078735352,0.897827148,0.668212891,-4.272460938,-78.85742188,-36.19384766
241323,0.143188477,0.904418945,0.493286133,2.502441406,-89.78271484,-38.81835938
241349,0.229736328,0.922851563,0.297485352,6.530761719,-90.69824219,-36.01074219
241375,0.286987305,0.959594727,0.153198242,10.07080078,-80.078125,-29.54101563
241401,0.355224609,1.001953125,-0.061401367,0.305175781,-62.74414063,-21.72851563
241427,0.4375,1.015258789,-0.119384766,-8.850097656,-47.24121094,-18.24951172
241454,0.420410156,1.013793945,-0.078613281,-5.737304688,-10.80322266,-6.103515625
241480,0.31262207,1.052978516,0.010375977,0.915527344,33.50830078,10.00976563
241506,0.312011719,1.025878906,0.041381836,-5.187988281,54.80957031,16.96777344
241532,0.245117188,0.971313477,0.122436523,-9.765625,85.63232422,26.79443359
241558,0.125366211,0.87097168,0.483764648,8.239746094,125.6713867,41.74804688
241584,-0.108764648,0.905883789,0.848144531,10.92529297,135.9863281,46.44775391
241611,-1.606689453,-0.030883789,3.653564453,46.14257813,53.83300781,50.10986328
241637,0.276611328,0.928588867,1.13671875,44.06738281,-31.12792969,8.728027344
241663,0.205078125,0.80847168,0.507568359,13.24462891,-37.35351563,12.32910156
241689,0.049560547,0.642700195,0.564453125,-50.41503906,-44.49462891,-31.00585938
241715,-0.009643555,0.862670898,0.886352539,-45.22705078,-66.52832031,-32.10449219
241742,0.122314453,0.970581055,0.705200195,-30.76171875,-70.25146484,-33.69140625
241768,0.266479492,0.904907227,0.439941406,-18.98193359,-79.52880859,-34.72900391
241794,0.323242188,0.965820313,0.335693359,2.44140625,-71.22802734,-30.70068359
241820,0.36340332,1.001464844,0.223266602,7.019042969,-62.62207031,-22.58300781
241846,0.450683594,1.013305664,0.042480469,-0.854492188,-39.67285156,-10.80322266
241872,0.39831543,1.00793457,0.064453125,-13.61083984,-15.56396484,2.319335938
241898,0.361328125,1.020263672,0.151367188,-15.13671875,3.601074219,18.5546875
241925,0.373413086,1.00793457,0.224487305,-18.24951172,28.25927734,25.57373047
241951,0.350219727,0.921508789,0.340087891,-12.93945313,45.77636719,34.54589844
241977,0.284545898,0.925170898,0.367919922,-10.31494141,61.21826172,46.75292969
242003,0.235473633,0.841796875,0.391723633,-14.40429688,73.18115234,53.83300781
242030,0.173461914,0.672363281,0.536132813,-17.51708984,93.50585938,60.05859375
242056,0.063964844,0.662475586,0.774047852,-22.4609375,90.45410156,65.49072266
242082,0.004394531,0.237915039,1.487060547,-41.07666016,-56.27441406,20.26367188
242108,-0.144165039,0.498413086,1.321166992,26.12304688,-12.26806641,24.59716797
242134,0.153076172,0.679931641,0.648925781,12.57324219,-4.455566406,-0.366210938
242160,0.104125977,0.636352539,0.59753418,-1.098632813,-15.68603516,-20.81298828
242187,0.06237793,0.70715332,0.855957031,-22.33886719,-61.58447266,-19.83642578
242213,0.174560547,0.796875,0.742919922,-11.84082031,-75.98876953,-26.91650391
242239,0.250244141,0.795410156,0.556640625,-8.728027344,-80.99365234,-29.54101563
242265,0.397827148,0.790039063,0.373168945,-12.45117188,-82.76367188,-32.04345703
242291,0.451293945,0.852783203,0.270874023,-3.356933594,-70.3125,-28.56445313
242318,0.484985352,0.871459961,0.166503906,-2.136230469,-56.39648438,-24.90234375
242344,0.581298828,0.898071289,-0.016845703,-9.948730469,-29.35791016,-20.62988281
242370,0.622802734,0.909423828,-0.065429688,-2.9296875,9.765625,-5.004882813
242396,0.594116211,0.899414063,-0.038330078,3.601074219,36.92626953,6.652832031
242422,0.511108398,0.881103516,0.020629883,3.967285156,73.79150391,16.35742188
242449,0.363525391,0.832275391,0.241210938,23.31542969,113.7695313,27.28271484
242475,0.176513672,0.820068359,0.515136719,38.02490234,134.8876953,34.36279297
242501,-0.204711914,0.829467773,1.155151367,23.07128906,130.5541992,42.17529297
242527,-0.941162109,0.33190918,2.315673828,82.58056641,-15.44189453,23.55957031
242553,0.033203125,0.862426758,1.427001953,47.42431641,-1.220703125,12.63427734
242579,0.260009766,0.591064453,0.447753906,20.08056641,-12.57324219,-8.30078125
242606,-0.051025391,0.600830078,0.787597656,9.094238281,-54.62646484,-24.16992188
242632,-0.084350586,0.807006836,0.939331055,-20.81298828,-98.6328125,-36.19384766
242658,0.156982422,0.890136719,0.554077148,-26.00097656,-106.0180664,-43.27392578
242684,0.344116211,0.904907227,0.270996094,-20.08056641,-107.421875,-42.78564453
242710,0.470825195,0.926269531,0.084228516,-1.892089844,-91.12548828,-34.97314453
242736,0.55065918,0.977172852,-0.059082031,6.713867188,-71.96044922,-28.68652344
242762,0.690673828,0.976196289,-0.294311523,13.48876953,-32.65380859,-16.96777344
242789,0.617431641,1.001586914,-0.284912109,32.28759766,23.68164063,-1.831054688
242815,0.510742188,1.057006836,-0.190185547,45.95947266,59.44824219,7.263183594
242841,0.342407227,0.985473633,0.038696289,30.70068359,95.21484375,17.15087891
242867,0.205200195,0.877807617,0.337524414,11.77978516,119.4458008,30.2734375
242893,0.06628418,0.787597656,0.608886719,3.112792969,136.5356445,35.33935547
242919,-0.586791992,1.095336914,1.069458008,-2.380371094,135.0097656,43.76220703
242946,-0.610839844,0.423461914,2.143798828,63.53759766,-8.483886719,18.31054688
242972,0.005126953,0.821166992,1.346313477,30.2734375,-23.74267578,0.854492188
242998,0.160400391,0.804443359,0.407958984,1.953125,-29.90722656,-21.54541016
243024,0.022949219,0.727050781,0.703491211,-59.02099609,-75.1953125,-33.26416016
243050,0.048583984,0.834960938,0.850341797,-44.55566406,-93.62792969,-36.80419922
243077,0.235717773,0.982543945,0.520141602,-14.6484375,-95.82519531,-39.12353516
243103,0.408203125,0.883056641,0.223266602,-11.29150391,-102.2338867,-36.1328125
243129,0.470581055,0.931518555,0.142578125,-4.699707031,-94.97070313,-33.81347656
243155,0.562011719,0.968994141,-0.068603516,5.004882813,-67.50488281,-23.13232422
243181,0.610229492,0.987915039,-0.275512695,-2.197265625,-25.20751953,-19.28710938
243208,0.482421875,1.044677734,-0.223754883,-3.295898438,31.98242188,-9.27734375
243234,0.339233398,1.126098633,-0.100219727,-7.141113281,67.01660156,3.90625
243260,0.265014648,1.017333984,0.081298828,-17.88330078,98.69384766,24.47509766
243286,0.204345703,0.891967773,0.217041016,-18.61572266,127.9296875,44.43359375
243312,0.058837891,0.700073242,0.629394531,-3.723144531,149.8413086,54.38232422
243338,-1.415161133,-0.221679688,3.513549805,-28.86962891,72.50976563,62.37792969
243365,0.249145508,0.411499023,1.459716797,13.79394531,-27.58789063,10.07080078
243391,0.048461914,0.724487305,1.058105469,56.76269531,7.873535156,27.34375
243417,0.221679688,0.672485352,0.37487793,-16.05224609,-35.88867188,-22.09472656
243443,0.008422852,0.804443359,0.9140625,-60.36376953,-75.13427734,-34.85107422
243469,0.106079102,0.869506836,0.8515625,-60.72998047,-93.68896484,-34.66796875
243496,0.284912109,0.880737305,0.51550293,-32.95898438,-95.09277344,-37.35351563
243522,0.390991211,0.850219727,0.328369141,-9.582519531,-92.7734375,-31.61621094
243548,0.453857422,0.847167969,0.258422852,-1.281738281,-85.32714844,-27.28271484
243574,0.495727539,0.889282227,0.057861328,4.943847656,-65.12451172,-20.14160156
243600,0.540771484,0.895141602,-0.078857422,0.915527344,-35.52246094,-13.12255859
243626,0.496704102,0.917236328,-0.089233398,3.540039063,-6.530761719,-4.943847656
243653,0.415527344,0.99597168,-0.017700195,6.713867188,43.09082031,9.338378906
243679,0.331542969,0.923706055,0.13659668,4.760742188,84.35058594,26.48925781
243705,0.241088867,0.877197266,0.312011719,8.728027344,111.9384766,33.08105469
243731,-0.077270508,0.967773438,0.726928711,24.84130859,151.3671875,44.921875
243757,-1.255126953,-0.377807617,2.845581055,35.09521484,110.9008789,55.60302734
243783,-0.238037109,0.587524414,1.724853516,102.5390625,-10.37597656,13.00048828
243810,0.306640625,0.668701172,0.887695313,5.493164063,-21.91162109,11.90185547
243836,0.107177734,0.776123047,0.467407227,-33.99658203,-45.41015625,-36.86523438
243862,0.206665039,0.668823242,0.688476563,-29.78515625,-67.81005859,-39.0625
243888,0.102172852,0.871459961,0.8828125,-13.79394531,-80.87158203,-43.76220703
243914,0.201171875,0.978881836,0.607666016,-10.98632813,-92.28515625,-41.80908203
243941,0.311035156,0.954467773,0.332275391,-22.21679688,-99.91455078,-37.109375
243967,0.415039063,0.917602539,0.193481445,-21.85058594,-93.81103516,-32.59277344
243993,0.498413086,0.951782227,0.024902344,-14.46533203,-68.48144531,-18.92089844
244019,0.515258789,0.92590332,-0.059448242,-12.93945313,-34.60693359,-7.934570313
244045,0.489013672,0.924926758,-0.07043457,-8.483886719,-7.507324219,0.732421875
244072,0.496704102,0.978393555,-0.128173828,-6.286621094,35.15625,9.887695313
244098,0.358276367,0.952636719,0.08984375,-15.80810547,68.29833984,18.06640625
244124,0.256225586,1.000366211,0.177246094,-17.27294922,91.796875,37.53662109
244150,0.170776367,0.823852539,0.501953125,6.713867188,133.9111328,59.32617188
244176,-0.12512207,0.691162109,1.319335938,30.94482422,146.1791992,73.2421875
244203,-1.688476563,-0.821411133,3.807739258,76.90429688,85.57128906,59.75341797
244229,-0.008056641,0.966552734,1.626831055,52.85644531,-28.25927734,1.403808594
244255,0.213134766,0.700439453,0.463623047,-3.112792969,-31.06689453,-7.934570313
244281,0.101928711,0.624755859,0.340332031,-47.97363281,-55.90820313,-28.74755859
244307,0.046264648,0.669677734,0.941162109,-50.29296875,-82.64160156,-31.06689453
244334,0.205444336,0.858276367,0.608154297,-25.69580078,-93.32275391,-41.13769531
244360,0.311157227,0.825683594,0.370239258,-22.39990234,-96.74072266,-47.24121094
244386,0.417114258,0.846923828,0.220336914,-2.136230469,-93.56689453,-47.54638672
244412,0.450805664,0.962402344,0.063598633,18.61572266,-77.94189453,-37.29248047
244438,0.488647461,0.981201172,-0.024047852,4.272460938,-52.97851563,-24.84130859
244464,0.537841797,0.977783203,-0.097045898,-10.62011719,-33.81347656,-16.54052734
244491,0.435668945,1.048706055,-0.084228516,-32.40966797,9.399414063,5.920410156
244517,0.404174805,0.990600586,0.055908203,-47.91259766,57.37304688,27.46582031
244543,0.370849609,0.776733398,0.232177734,-40.95458984,92.10205078,40.58837891
244569,0.107299805,0.698730469,0.675048828,-33.99658203,124.206543,47.91259766
244595,-0.087158203,0.547607422,1.48815918,-24.29199219,109.6191406,43.57910156
244622,-1.102416992,-1.13269043,2.92956543,40.71044922,86.73095703,38.75732422
244648,-0.251464844,0.912963867,1.548217773,115.4785156,-15.56396484,-14.03808594
244674,0.196411133,0.89440918,0.34375,-28.01513672,-64.63623047,-38.63525391
244700,0.022216797,0.522705078,0.763671875,-67.62695313,-68.11523438,-34.72900391
244727,0.093139648,0.641845703,0.924682617,-13.97705078,-87.46337891,-38.57421875
244753,0.271972656,0.878295898,0.488891602,0.427246094,-90.57617188,-53.22265625
244779,0.366577148,0.888671875,0.325195313,-2.502441406,-92.83447266,-55.29785156
244805,0.496826172,0.96887207,0.084960938,10.62011719,-77.27050781,-46.32568359
244831,0.51159668,1.086547852,-0.065673828,19.40917969,-52.18505859,-30.33447266
244857,0.532348633,1.12487793,-0.141845703,15.19775391,-29.47998047,-14.52636719
244884,0.457275391,1.078369141,-0.117553711,5.920410156,10.55908203,11.90185547
244910,0.360107422,1.009887695,-0.016479492,5.432128906,57.25097656,38.75732422
244936,0.322875977,0.925292969,0.096923828,8.178710938,106.7504883,55.29785156
244962,0.167358398,0.809570313,0.462890625,26.12304688,140.0146484,62.5
244988,0.137695313,0.553955078,0.897094727,26.18408203,137.5732422,73.60839844
245014,-0.953979492,-0.620361328,3.082641602,193.2983398,60.91308594,36.62109375
245041,-0.239135742,1.008422852,1.651245117,95.15380859,14.16015625,11.10839844
245067,0.253662109,0.831665039,0.569458008,-32.59277344,-50.29296875,-29.84619141
245093,0.170898438,0.563354492,0.476806641,-76.23291016,-65.67382813,-35.15625
245119,0.073364258,0.790771484,0.908935547,-34.97314453,-76.59912109,-35.46142578
245146,0.224121094,0.934814453,0.638671875,-10.98632813,-90.20996094,-44.06738281
245172,0.343505859,0.930297852,0.354003906,-2.685546875,-95.94726563,-41.93115234
245198,0.42565918,0.971435547,0.153930664,1.159667969,-91.55273438,-38.0859375
245224,0.581176758,1.020141602,-0.190307617,-1.403808594,-68.84765625,-28.62548828
245250,0.597290039,1.073974609,-0.393676758,5.859375,-16.84570313,-8.850097656
245276,0.492797852,1.05871582,-0.365722656,4.516601563,31.18896484,4.8828125
245303,0.301391602,1.038208008,-0.206298828,-8.666992188,91.43066406,30.2734375
245329,0.204223633,0.907836914,0.102539063,-30.39550781,125.793457,44.12841797
245355,0.12902832,0.729492188,0.412231445,-22.4609375,148.3764648,50.90332031
245381,-0.273071289,0.694091797,1.264160156,22.4609375,170.4101563,57.55615234
245407,-0.790039063,0.791748047,2.285522461,70.80078125,2.868652344,23.74267578
245434,0.004760742,0.826538086,1.559570313,45.10498047,-15.50292969,1.708984375
245460,0.381347656,0.600708008,0.19543457,6.591796875,-45.22705078,-10.62011719
245486,0.006591797,0.717285156,0.842773438,-50.84228516,-60.97412109,-28.3203125
245512,-0.011352539,0.725708008,1.103759766,-46.20361328,-86.54785156,-34.72900391
245539,0.227539063,0.99230957,0.59375,-22.94921875,-96.00830078,-46.08154297
245565,0.400512695,0.919311523,0.212036133,-11.84082031,-95.15380859,-44.921875
245591,0.446533203,0.959106445,0.125488281,16.23535156,-73.73046875,-30.33447266
245617,0.491577148,1.021850586,-0.119262695,20.75195313,-50.90332031,-20.20263672
245643,0.505004883,0.999633789,-0.286254883,5.004882813,-13.91601563,-4.333496094
245669,0.456420898,0.987182617,-0.242797852,-8.483886719,27.28271484,10.92529297
245696,0.331176758,0.986206055,-0.143676758,-8.972167969,57.6171875,20.5078125
245722,0.250976563,0.893432617,0.161010742,4.699707031,109.1918945,36.01074219
245748,0.137817383,0.815063477,0.678955078,18.00537109,145.2636719,46.93603516
245774,-0.138671875,0.778198242,1.175537109,3.601074219,135.3759766,56.76269531
245800,-1.170532227,-0.350585938,2.843017578,122.1923828,61.09619141,41.015625
245826,-0.063110352,0.825195313,1.508178711,19.22607422,-17.45605469,-2.990722656
245852,0.233276367,0.680664063,0.653076172,-52.79541016,-62.62207031,-14.03808594
245878,0.088134766,0.557495117,0.584838867,-96.80175781,-65.36865234,-34.1796875
245905,0.065551758,0.764526367,0.911987305,-27.09960938,-72.44873047,-31.61621094
245931,0.147338867,0.846191406,0.723632813,1.831054688,-76.23291016,-38.94042969
245957,0.270996094,0.878173828,0.415039063,11.10839844,-84.83886719,-41.25976563
245983,0.374267578,0.934936523,0.181762695,17.51708984,-81.23779297,-36.43798828
246009,0.424438477,0.994750977,-0.018310547,15.68603516,-69.15283203,-28.62548828
246035,0.503662109,1.059570313,-0.218994141,11.16943359,-34.42382813,-12.08496094
246062,0.46472168,1.049682617,-0.200927734,1.892089844,10.13183594,7.202148438
246088,0.427001953,1.057006836,-0.145874023,-1.281738281,41.25976563,20.99609375
246114,0.371337891,0.998046875,0.011962891,-2.9296875,87.70751953,37.47558594
246140,0.153564453,0.830444336,0.454956055,12.6953125,136.2915039,53.10058594
246166,-0.165039063,0.77722168,0.987060547,17.94433594,146.9116211,57.49511719
246192,-1.312011719,-0.245605469,2.895385742,84.16748047,-15.19775391,19.47021484
246218,0.152832031,0.904663086,1.306762695,56.51855469,-39.24560547,-14.70947266
246245,0.119262695,0.649291992,0.845092773,12.08496094,-29.17480469,-18.18847656
246271,0.057861328,0.740356445,0.752685547,-58.77685547,-47.97363281,-28.38134766
246297,0.093017578,0.784179688,0.958984375,-52.85644531,-78.49121094,-29.05273438
246323,0.184936523,0.806884766,0.763427734,-24.84130859,-86.36474609,-40.28320313
246349,0.212768555,0.859863281,0.532592773,8.666992188,-91.49169922,-41.56494141
246375,0.290039063,0.880493164,0.320068359,12.51220703,-89.23339844,-36.92626953
246402,0.346069336,0.927490234,0.149658203,0.366210938,-76.47705078,-31.25
246428,0.481567383,0.950317383,-0.109130859,-12.14599609,-60.85205078,-25.75683594
246454,0.589233398,1.054443359,-0.239868164,-17.02880859,-20.20263672,-13.73291016
246480,0.571411133,1.085449219,-0.202148438,-9.765625,28.80859375,4.821777344
246506,0.440551758,1.11340332,-0.121337891,-7.141113281,57.98339844,18.31054688
246532,0.327148438,1.038208008,0.042358398,-6.103515625,94.7265625,40.64941406
246558,0.16027832,0.882202148,0.385131836,4.089355469,130.065918,57.31201172
246585,-0.038208008,0.769042969,0.784545898,4.455566406,143.1884766,62.92724609
246611,-1.030395508,-0.304931641,2.962036133,-15.31982422,70.73974609,54.62646484
246637,-0.283569336,0.694458008,1.751953125,31.49414063,6.774902344,19.28710938
246663,0.170410156,0.696166992,1.1640625,33.14208984,-8.605957031,24.84130859
246689,0.211547852,0.59387207,0.409545898,-17.21191406,-33.81347656,-28.07617188
246716,-0.028808594,0.762451172,0.916259766,-28.44238281,-67.26074219,-30.2734375
246742,0.052124023,0.80078125,0.957885742,-11.04736328,-85.75439453,-34.30175781
246768,0.219970703,0.869873047,0.537963867,8.728027344,-102.6000977,-44.67773438
246794,0.384033203,0.878662109,0.243286133,9.826660156,-110.8398438,-41.13769531
246820,0.409301758,0.912231445,0.151611328,13.85498047,-99.97558594,-39.24560547
246847,0.501831055,0.959838867,-0.100708008,8.239746094,-77.33154297,-31.43310547
246873,0.591064453,1.047119141,-0.29296875,-5.981445313,-42.48046875,-18.79882813
246899,0.565551758,1.072265625,-0.306640625,-11.23046875,-7.385253906,1.098632813
246925,0.450439453,1.100830078,-0.20690918,-8.117675781,49.92675781,18.24951172
246951,0.352294922,0.994628906,0.000366211,-3.601074219,98.02246094,37.41455078
246978,0.248901367,0.888793945,0.244018555,13.91601563,134.6435547,51.94091797
247004,-0.013671875,0.782226563,0.746826172,25.32958984,147.9492188,57.12890625
247030,-0.069824219,0.567382813,1.327514648,11.77978516,122.6806641,58.10546875
247056,-1.235473633,0.172485352,3.477661133,47.05810547,8.911132813,20.14160156
247083,-0.262695313,0.599121094,1.582519531,22.39990234,-0.732421875,4.8828125
247109,0.077270508,0.643066406,0.696411133,2.197265625,-37.23144531,-18.18847656
247135,0.047851563,0.706176758,0.658325195,-57.92236328,-84.16748047,-36.25488281
247161,0.13269043,0.748413086,0.774780273,-41.56494141,-99.67041016,-35.58349609
247188,0.282470703,0.917236328,0.461914063,-10.80322266,-103.515625,-45.8984375
247214,0.424316406,0.962890625,0.107421875,-7.385253906,-103.3935547,-45.77636719
247240,0.472412109,0.984863281,0.010742188,-3.479003906,-95.64208984,-40.10009766
247266,0.522216797,1.056152344,-0.16394043,10.7421875,-63.41552734,-21.30126953
247292,0.531005859,1.033813477,-0.233276367,5.004882813,-14.40429688,-0.671386719
247318,0.501953125,0.998535156,-0.195678711,-4.699707031,17.45605469,10.86425781
247344,0.416992188,0.936401367,-0.036743164,-11.41357422,64.453125,27.70996094
247371,0.338989258,0.818359375,0.249023438,-3.41796875,104.7973633,37.71972656
247397,0.228027344,0.754760742,0.524414063,5.126953125,123.5351563,41.44287109
247423,-0.054199219,0.711547852,1.120727539,22.58300781,138.4887695,47.11914063
247449,0.6328125,0.904052734,-0.186035156,-6.774902344,-6.225585938,12.93945313
247475,-0.760864258,0.456298828,2.330322266,84.89990234,10.49804688,14.52636719
247501,0.068603516,0.848999023,1.077636719,27.46582031,-36.74316406,-2.563476563
247527,0.096313477,0.877807617,0.522705078,-23.55957031,-53.16162109,-31.92138672
247554,0.066650391,0.624511719,0.825317383,-52.06298828,-80.74951172,-28.93066406
247580,0.187744141,0.807983398,0.646728516,-26.18408203,-96.37451172,-36.98730469
247606,0.330322266,0.869628906,0.330566406,-8.7890625,-96.86279297,-43.57910156
247632,0.398925781,0.865966797,0.229003906,6.591796875,-91.796875,-40.58837891
247658,0.461425781,0.987426758,0.064453125,18.67675781,-78.55224609,-33.44726563
247684,0.552856445,1.01940918,-0.10925293,13.54980469,-56.88476563,-22.94921875
247711,0.589599609,1.025634766,-0.200439453,2.258300781,-19.40917969,-7.934570313
247736,0.528686523,1.053955078,-0.161865234,-0.793457031,12.08496094,4.821777344
247763,0.4140625,1.012573242,-0.026977539,-9.704589844,58.28857422,23.55957031
247789,0.401611328,0.903686523,0.158813477,-6.530761719,102.0507813,37.17041016
247815,0.266845703,0.755859375,0.358276367,5.37109375,130.0048828,42.48046875
247841,-0.056762695,0.812255859,0.970458984,26.55029297,150.9399414,52.42919922
247867,-0.264160156,0.21875,1.638305664,6.286621094,109.9853516,46.32568359
247894,-1.271972656,0.347167969,3.122314453,66.52832031,19.34814453,6.408691406
247920,-0.039428711,0.990356445,1.266235352,36.86523438,-22.94921875,-0.732421875
247946,0.076293945,0.972412109,0.463867188,-11.53564453,-39.30664063,-34.85107422
247973,-0.017211914,0.716674805,0.83215332,-62.56103516,-71.59423828,-20.56884766
247999,0.171264648,0.730102539,0.803955078,-31.98242188,-98.51074219,-31.79931641
248025,0.314453125,0.889526367,0.421264648,-7.568359375,-100.9521484,-40.64941406
248051,0.395141602,0.882080078,0.267456055,-2.319335938,-103.5766602,-39.24560547
248077,0.489624023,0.923583984,0.076904297,9.948730469,-89.35546875,-33.44726563
248103,0.537231445,0.998413086,-0.093017578,8.911132813,-64.453125,-20.87402344
248130,0.552490234,1.013427734,-0.155029297,0.793457031,-41.07666016,-12.32910156
248156,0.493408203,1.000976563,-0.117431641,-7.32421875,4.211425781,5.493164063
248182,0.430053711,0.954101563,0.004760742,-9.765625,50.59814453,21.78955078
248208,0.383666992,0.869995117,0.149169922,-5.493164063,90.20996094,31.67724609
248234,0.327758789,0.807617188,0.303466797,7.019042969,107.9711914,33.87451172
248261,0.150146484,0.786865234,0.581787109,7.8125,121.2158203,33.44726563
248287,0.017944336,0.780761719,1.088134766,-5.065917969,105.3466797,44.49462891
248313,0.201416016,0.618774414,0.716186523,-4.333496094,81.97021484,39.42871094
248339,-0.162109375,0.538574219,1.857543945,64.94140625,-38.51318359,8.544921875
248365,0.19140625,0.770507813,0.885131836,12.08496094,-40.83251953,-1.342773438
248392,0.207397461,0.80078125,0.495361328,-19.40917969,-46.69189453,-26.48925781
248418,0.095703125,0.65246582,0.780273438,-38.02490234,-70.37353516,-20.44677734
248444,0.184936523,0.827636719,0.697509766,-12.02392578,-83.61816406,-30.70068359
248470,0.295898438,0.906616211,0.458007813,-5.310058594,-88.37890625,-32.83691406
248496,0.456420898,0.86315918,0.219238281,-2.258300781,-91.00341797,-32.16552734
248522,0.491821289,0.904785156,0.117431641,7.446289063,-79.1015625,-24.29199219
248549,0.536987305,0.971679688,0.006103516,8.972167969,-61.09619141,-15.31982422
248575,0.580078125,0.955810547,-0.096435547,-1.708984375,-26.91650391,-5.432128906
248601,0.495117188,0.93347168,-0.020507813,-6.042480469,17.70019531,12.51220703
248627,0.461547852,0.88659668,0.098266602,-5.493164063,47.54638672,21.30126953
248653,0.384643555,0.817626953,0.272583008,8.056640625,85.51025391,28.19824219
248680,0.234741211,0.774658203,0.554199219,16.05224609,107.2387695,29.66308594
248706,0.079223633,0.785644531,0.887329102,11.35253906,109.5581055,35.52246094
248732,0.201782227,0.647949219,0.875,-8.422851563,74.27978516,32.2265625
248758,-0.444580078,0.399169922,2.019897461,69.82421875,-6.530761719,10.49804688
248784,-0.120117188,1.050537109,1.377685547,-12.93945313,-68.05419922,-11.29150391
248811,0.258544922,0.742431641,0.478637695,-36.01074219,-60.11962891,-30.82275391
248837,0.188964844,0.559814453,0.758178711,-24.90234375,-62.98828125,-20.93505859
248863,0.198974609,0.757080078,0.75,3.540039063,-73.2421875,-33.69140625
248889,0.313110352,0.955200195,0.429931641,-4.8828125,-82.03125,-34.79003906
248915,0.490356445,0.910766602,0.139770508,-15.19775391,-83.31298828,-31.31103516
248941,0.571166992,0.896606445,0.031616211,-0.122070313,-62.5,-22.27783203
248968,0.522827148,1.028076172,-0.00769043,6.164550781,-40.95458984,-10.37597656
248994,0.556274414,0.975463867,-0.080078125,-10.86425781,-5.859375,3.723144531
249020,0.476928711,0.894287109,0.017944336,-19.53125,37.109375,19.34814453
249046,0.411621094,0.823730469,0.180419922,-21.72851563,64.57519531,28.01513672
249072,0.306884766,0.668945313,0.492919922,-10.55908203,98.32763672,34.11865234
249098,0.156982422,0.674072266,0.853637695,6.530761719,114.5629883,34.24072266
249125,0.125488281,0.659545898,1.016479492,0.549316406,89.96582031,26.79443359
249151,-0.704345703,-0.112182617,2.153076172,-10.98632813,53.95507813,12.32910156
249177,-0.197265625,1.079345703,1.601318359,69.45800781,-18.43261719,-12.51220703
249203,0.197998047,0.696289063,0.89855957,0.366210938,-52.49023438,-12.63427734
249230,0.241699219,0.704101563,0.530883789,-35.88867188,-61.5234375,-18.73779297
249256,0.207397461,0.619018555,0.802856445,-24.16992188,-69.88525391,-24.16992188
249282,0.282104492,0.737915039,0.67199707,-5.737304688,-78.55224609,-34.85107422
249308,0.41796875,0.851196289,0.324462891,2.380371094,-86.42578125,-36.37695313
249334,0.495117188,0.853149414,0.143798828,8.361816406,-75.13427734,-35.03417969
249360,0.532470703,0.923339844,0.018798828,13.85498047,-59.69238281,-29.05273438
249387,0.524414063,1.004882813,-0.030517578,7.141113281,-29.05273438,-15.56396484
249413,0.496459961,1.004882813,-0.070922852,-3.967285156,7.507324219,1.159667969
249439,0.449462891,0.977661133,-0.014526367,-9.094238281,46.63085938,17.08984375
249465,0.33972168,0.91027832,0.209594727,-5.615234375,72.81494141,28.38134766
249491,0.294189453,0.743896484,0.460327148,0.244140625,105.5297852,39.12353516
249517,0.205810547,0.71081543,0.711303711,7.446289063,120.4833984,45.28808594
249544,0.019775391,0.708984375,1.230957031,0.244140625,110.0463867,48.95019531
249570,-0.985839844,-0.283691406,2.803466797,43.82324219,34.91210938,17.82226563
249596,-0.049804688,0.986816406,1.486816406,48.95019531,-22.94921875,0.915527344
249622,0.170776367,0.677246094,0.67565918,-7.202148438,-32.65380859,-13.79394531
249649,0.193359375,0.584350586,0.670043945,-68.78662109,-74.03564453,-25.63476563
249675,0.221679688,0.719238281,0.805053711,-24.59716797,-87.70751953,-29.296875
249701,0.312011719,0.811157227,0.550292969,-4.089355469,-87.28027344,-37.65869141
249727,0.43359375,0.800048828,0.287841797,3.540039063,-89.41650391,-39.97802734
249753,0.475219727,0.85949707,0.129394531,15.01464844,-78.67431641,-34.30175781
249779,0.53515625,0.973388672,0.010498047,16.90673828,-59.14306641,-25.87890625
249806,0.572631836,0.992431641,-0.111572266,5.920410156,-21.05712891,-11.04736328
249832,0.535766602,0.97265625,-0.100952148,-2.990722656,25.32958984,9.826660156
249858,0.501098633,0.919799805,0.022338867,-3.662109375,56.03027344,21.42333984
249884,0.37890625,0.833618164,0.284545898,6.34765625,93.75,35.15625
249910,0.155761719,0.767578125,0.72644043,21.91162109,118.4692383,40.95458984
249936,0.131591797,0.706787109,0.967285156,22.64404297,114.1357422,44.43359375
249963,0.170166016,0.511230469,0.751098633,-2.990722656,87.21923828,27.52685547
249989,-0.001708984,0.27355957,1.981445313,68.96972656,-56.09130859,-6.713867188
250015,-0.10546875,0.999511719,1.442871094,35.82763672,-43.33496094,-3.540039063
250041,0.174438477,0.815063477,0.609985352,-4.333496094,-51.26953125,-37.65869141
250067,0.244140625,0.688720703,0.548461914,-40.58837891,-74.70703125,-18.49365234
250094,0.246704102,0.69543457,0.687988281,-14.16015625,-79.89501953,-30.21240234
250120,0.330444336,0.885864258,0.427368164,1.770019531,-88.74511719,-41.56494141
250146,0.487670898,0.925415039,0.131835938,-4.455566406,-92.59033203,-38.14697266
250172,0.529296875,0.919433594,0.043212891,4.699707031,-71.04492188,-25.63476563
250198,0.560668945,0.997314453,-0.080688477,11.35253906,-43.45703125,-14.77050781
250224,0.555053711,0.965454102,-0.100830078,-2.502441406,1.525878906,-1.403808594
250251,0.464355469,0.927368164,0.052368164,-11.04736328,41.80908203,14.34326172
250277,0.384521484,0.900756836,0.206787109,-13.24462891,66.10107422,23.68164063
250303,0.280151367,0.74987793,0.552490234,0.549316406,99.42626953,36.25488281
250329,-0.005615234,0.715454102,1.136474609,15.50292969,118.1640625,42.84667969
250355,-0.034545898,0.685668945,1.137329102,8.911132813,92.16308594,44.00634766
250381,-0.309448242,0.341064453,2.107666016,64.20898438,-14.22119141,2.075195313
250408,0.141357422,0.75012207,1.071777344,15.38085938,-37.90283203,-8.972167969
250434,0.196044922,0.819946289,0.501464844,-5.798339844,-39.24560547,-38.33007813
250460,0.181030273,0.527709961,0.79699707,-50.78125,-78.91845703,-31.06689453
250486,0.267333984,0.810180664,0.689086914,-3.540039063,-89.23339844,-39.91699219
250513,0.345336914,0.89440918,0.432617188,8.361816406,-91.12548828,-47.30224609
250539,0.442260742,0.889770508,0.264770508,10.80322266,-93.01757813,-43.88427734
250565,0.576171875,1.01159668,-0.038574219,20.01953125,-72.57080078,-31.79931641
250591,0.579223633,1.052734375,-0.121704102,14.77050781,-28.56445313,-14.95361328
250617,0.534912109,1.067260742,-0.142089844,-4.760742188,-0.854492188,-1.220703125
250644,0.462402344,1.017700195,-0.066772461,-30.21240234,44.43359375,21.91162109
250670,0.42565918,0.888061523,0.044433594,-43.33496094,82.03125,37.53662109
250696,0.279296875,0.749389648,0.392578125,-37.23144531,101.4404297,45.95947266
250722,0.038574219,0.662109375,0.967773438,-14.03808594,120.3613281,54.44335938
250748,-1.064697266,0.036376953,0.237426758,4.028320313,-57.49511719,10.7421875
250774,-0.272338867,0.351074219,1.917358398,86.05957031,13.00048828,32.89794922
250801,0.208984375,0.557250977,1.059692383,0.549316406,-22.64404297,-1.342773438
250827,0.368774414,0.677490234,0.282470703,-32.2265625,-40.40527344,-28.44238281
250853,0.257324219,0.613037109,0.548217773,-51.94091797,-62.80517578,-32.34863281
250879,0.213745117,0.741210938,0.856201172,-11.65771484,-73.97460938,-36.31591797
250905,0.318847656,0.877197266,0.471313477,26.00097656,-81.11572266,-43.88427734
250932,0.432861328,0.888916016,0.255371094,26.30615234,-84.89990234,-40.22216797
250958,0.526855469,0.905395508,0.106933594,29.296875,-71.53320313,-32.95898438
250984,0.544677734,0.969482422,-0.037719727,23.25439453,-40.40527344,-22.82714844
251011,0.522338867,1.005493164,-0.100463867,8.178710938,-12.51220703,-13.06152344
251037,0.49621582,0.989746094,-0.082397461,-8.056640625,29.05273438,5.065917969
251063,0.432983398,0.955078125,0.022338867,-9.704589844,75.56152344,24.71923828
251089,0.349365234,0.879516602,0.212890625,3.356933594,108.0322266,33.99658203
251115,0.167602539,0.797363281,0.659301758,20.99609375,142.1508789,47.54638672
251142,-0.317016602,0.927978516,1.117553711,6.713867188,132.6904297,70.49560547
251168,-1.204956055,-0.159301758,2.862426758,70.55664063,-2.014160156,23.01025391
251194,-0.052368164,0.697753906,1.709472656,27.58789063,-13.06152344,5.187988281
251220,0.212890625,0.58996582,0.786132813,-4.272460938,-2.075195313,-17.33398438
251247,0.229370117,0.736938477,0.404418945,-45.53222656,-58.41064453,-23.74267578
251273,0.209838867,0.868774414,0.524658203,-44.31152344,-66.16210938,-24.71923828
251299,0.291137695,0.768920898,0.677246094,-8.178710938,-56.88476563,-26.67236328
251325,0.307861328,0.903564453,0.415771484,15.93017578,-76.41601563,-32.34863281
251352,0.401611328,0.901000977,0.231445313,1.525878906,-83.06884766,-30.76171875
251378,0.498046875,0.832641602,0.125854492,-3.601074219,-72.02148438,-25.32958984
251404,0.557250977,0.913330078,0.014038086,6.164550781,-44.12841797,-21.36230469
251430,0.518676758,0.905517578,0.004150391,5.554199219,-16.72363281,-17.578125
251457,0.497192383,0.978515625,0.048461914,2.197265625,25.32958984,-0.549316406
251483,0.420288086,0.917724609,0.209106445,-8.30078125,60.66894531,21.484375
251509,0.408325195,0.842407227,0.354248047,-5.187988281,84.9609375,29.54101563
251535,0.253295898,0.779785156,0.649902344,12.57324219,117.0043945,40.16113281
251561,0.012939453,0.719604492,1.179077148,1.037597656,117.7368164,57.31201172
251588,-0.129516602,0.109008789,1.729736328,48.40087891,49.13330078,40.0390625
251614,-0.132324219,0.7265625,1.558105469,12.20703125,-28.80859375,2.746582031
251640,0.215209961,0.528808594,0.803100586,-20.69091797,-4.577636719,-7.202148438
251666,0.276733398,0.68371582,0.395751953,-56.39648438,-54.56542969,-30.15136719
251692,0.163208008,0.684082031,0.724243164,-50.96435547,-64.453125,-21.72851563
251719,0.237304688,0.776733398,0.780395508,-1.281738281,-70.92285156,-36.98730469
251745,0.371704102,0.848266602,0.414794922,8.850097656,-83.80126953,-38.75732422
251771,0.443237305,0.820556641,0.274291992,6.103515625,-85.08300781,-40.52734375
251797,0.526245117,0.859008789,0.142089844,16.72363281,-67.50488281,-31.12792969
251823,0.58972168,0.962890625,-0.03515625,13.79394531,-40.46630859,-25.45166016
251850,0.58581543,0.943481445,-0.019897461,8.972167969,-16.23535156,-18.24951172
256888,0.04309082,0.784057617,0.526000977,-12.75634766,-4.211425781,4.943847656
256914,0.051879883,0.825683594,0.491088867,-11.23046875,-3.41796875,1.708984375
256940,0.050415039,0.857910156,0.516967773,-11.90185547,-2.624511719,2.319335938
256966,0.042724609,0.844726563,0.576293945,-8.239746094,-3.295898438,2.380371094
256992,0.056152344,0.8359375,0.608886719,-0.183105469,-5.554199219,1.831054688
257018,0.053833008,0.87121582,0.609130859,1.098632813,-10.25390625,0.732421875
257044,0.055664063,0.839233398,0.630981445,-1.770019531,-16.78466797,-1.037597656
257071,0.081665039,0.896728516,0.645874023,-1.342773438,-21.60644531,2.868652344
257097,0.068603516,0.918334961,0.618041992,-4.333496094,-28.74755859,6.042480469
257123,0.014038086,0.903198242,0.691162109,-3.662109375,-36.62109375,6.774902344
257149,0.037353516,0.835083008,0.668579102,2.807617188,-47.97363281,7.507324219
257175,0.061767578,0.848754883,0.565673828,0.671386719,-55.35888672,4.821777344
257201,0.150024414,0.771362305,0.480957031,-2.563476563,-57.67822266,0.610351563
257228,0.294433594,0.805175781,0.294067383,-12.20703125,-53.34472656,-5.676269531
257254,0.402099609,0.909912109,0.163330078,-28.93066406,-36.1328125,-7.141113281
257280,0.391235352,1.031982422,0.155883789,-31.31103516,-11.90185547,5.554199219
257306,0.332641602,0.990600586,0.226196289,-27.58789063,35.09521484,29.05273438
257332,-0.012451172,1.044555664,0.78137207,-25.02441406,45.10498047,23.62060547
257358,0.211669922,0.763671875,0.66784668,-59.5703125,-23.07128906,31.12792969
257384,-0.335449219,0.55065918,1.712646484,51.63574219,-20.93505859,22.4609375
257411,0.190551758,0.820800781,0.587524414,3.356933594,-15.19775391,-14.46533203
257437,0.16027832,0.633056641,0.40234375,-4.39453125,-13.97705078,-18.18847656
257463,-0.053833008,0.79675293,0.891235352,8.7890625,-64.88037109,-14.83154297
257489,0.118774414,0.920410156,0.646118164,2.44140625,-92.59033203,-21.11816406
257515,0.27746582,0.852661133,0.389404297,-4.211425781,-95.64208984,-24.23095703
257542,0.413330078,0.893066406,0.189331055,7.141113281,-74.21875,-20.81298828
257568,0.514526367,0.965454102,0.017700195,2.685546875,-43.57910156,-11.29150391
257594,0.52734375,0.958862305,-0.033447266,-2.563476563,-16.23535156,-0.9765625
257621,0.455688477,0.899658203,0.035766602,-7.8125,25.08544922,13.00048828
257647,0.343261719,0.866088867,0.238891602,-5.37109375,59.20410156,24.35302734
257673,0.277954102,0.815307617,0.383056641,-3.90625,75.98876953,27.77099609
257699,0.121582031,0.747192383,0.664916992,4.760742188,80.56640625,28.93066406
257725,-0.000854492,0.706176758,1.081176758,-29.23583984,-8.056640625,19.16503906
257752,-0.430664063,0.470825195,1.850463867,23.13232422,-9.338378906,16.05224609
257778,0.065673828,0.667236328,1.109130859,40.89355469,4.272460938,-5.676269531
257804,0.281860352,0.797729492,0.375244141,17.39501953,-0.244140625,-17.51708984
257830,0.158081055,0.762817383,0.649047852,8.605957031,-23.92578125,-21.78955078
257856,0.089477539,0.920166016,0.727661133,9.27734375,-49.56054688,-22.70507813
257882,0.276000977,0.939331055,0.496337891,-1.953125,-68.96972656,-25.26855469
257908,0.319702148,0.892333984,0.397705078,-3.967285156,-68.60351563,-19.28710938
257935,0.359985352,0.893920898,0.320556641,-8.605957031,-59.87548828,-13.48876953
257961,0.401489258,0.856933594,0.206542969,-21.97265625,-36.68212891,-9.704589844
257987,0.429931641,0.836547852,0.169677734,-20.44677734,-8.30078125,-4.150390625
258013,0.427001953,0.849975586,0.184936523,-13.24462891,12.93945313,0.610351563
258040,0.403564453,0.813354492,0.28515625,-1.098632813,50.23193359,8.7890625
258066,0.296264648,0.798339844,0.409179688,8.117675781,79.89501953,15.01464844
258092,-0.176879883,0.793945313,0.982788086,5.676269531,88.13476563,15.19775391
258118,0.050415039,0.71081543,1.134033203,-39.73388672,10.7421875,16.6015625
258144,-0.583984375,0.359008789,2.623901367,33.50830078,27.52685547,14.95361328
258171,-0.056518555,0.687255859,1.267700195,23.92578125,-5.126953125,-4.638671875
258197,0.337280273,0.668823242,0.405883789,-12.08496094,-2.258300781,-7.568359375
258223,0.019897461,0.733032227,0.804321289,-8.117675781,-36.62109375,-18.79882813
258250,0.045166016,0.880004883,0.833007813,-10.7421875,-72.99804688,-21.24023438
258276,0.282592773,0.819580078,0.534057617,-11.71875,-77.08740234,-24.35302734
258302,0.345703125,0.831665039,0.403076172,-10.7421875,-71.96044922,-23.74267578
258328,0.334960938,0.869140625,0.403442383,-12.32910156,-57.37304688,-15.44189453
258355,0.410644531,0.894042969,0.274780273,-20.44677734,-46.32568359,-10.92529297
258381,0.487792969,0.85534668,0.181152344,-26.42822266,-27.28271484,-8.850097656
258407,0.423461914,0.845336914,0.312011719,-23.01025391,2.319335938,-1.831054688
258433,0.403808594,0.857543945,0.373657227,-24.16992188,19.89746094,6.469726563
258459,0.383178711,0.77331543,0.43359375,-23.86474609,47.91259766,16.6015625
258485,0.237426758,0.716308594,0.676757813,-18.79882813,67.81005859,22.03369141
258512,0.04296875,0.750976563,0.981079102,-15.68603516,73.48632813,33.63037109
258538,-0.100097656,0.746826172,0.583129883,-25.45166016,0.244140625,12.57324219
258564,-0.102416992,0.572631836,1.633056641,55.60302734,-12.6953125,1.953125
258590,0.067749023,0.74609375,1.081298828,16.72363281,-22.03369141,-9.033203125
258616,0.231323242,0.628173828,0.532104492,-20.44677734,-37.78076172,-26.91650391
258643,0.182495117,0.648193359,0.788818359,-34.1796875,-51.08642578,-24.23095703
258669,0.232177734,0.747192383,0.801635742,-18.67675781,-56.15234375,-25.26855469
258695,0.360107422,0.787841797,0.537353516,-4.638671875,-54.6875,-23.4375
258721,0.416748047,0.744995117,0.455200195,6.530761719,-48.27880859,-18.61572266
258747,0.397827148,0.765014648,0.471313477,9.155273438,-41.93115234,-13.18359375
258774,0.443725586,0.760742188,0.356567383,5.981445313,-25.08544922,-7.385253906
258800,0.473022461,0.765625,0.293579102,4.211425781,-3.051757813,-4.455566406
258826,0.430175781,0.756103516,0.410522461,11.71875,25.45166016,3.173828125
258852,0.383300781,0.756469727,0.478881836,14.22119141,42.23632813,13.00048828
258878,0.294433594,0.680664063,0.645019531,28.19824219,71.22802734,21.05712891
258904,0.107788086,0.713012695,1.012817383,35.88867188,85.87646484,28.01513672
258931,0.221679688,0.536987305,0.870117188,4.028320313,10.07080078,25.390625
258957,-0.372314453,0.194213867,1.74987793,18.06640625,31.49414063,13.48876953
258983,0.000610352,0.799438477,1.072021484,34.05761719,-9.033203125,-13.06152344
259009,0.118408203,0.64465332,0.818237305,-2.868652344,-23.07128906,-5.37109375
259035,0.141357422,0.661987305,0.883300781,-16.47949219,-67.26074219,-22.76611328
259062,0.29699707,0.752197266,0.661254883,-4.089355469,-74.15771484,-22.52197266
259088,0.373779297,0.755004883,0.46875,-1.770019531,-70.00732422,-25.51269531
259114,0.435058594,0.775024414,0.337280273,4.699707031,-57.55615234,-24.35302734
259140,0.453613281,0.865112305,0.244995117,11.29150391,-37.04833984,-17.27294922
259166,0.494873047,0.888305664,0.174926758,7.629394531,-21.30126953,-12.57324219
259193,0.487060547,0.880493164,0.151245117,6.286621094,9.094238281,-3.41796875
259219,0.355224609,0.895874023,0.29675293,9.704589844,41.74804688,10.98632813
259245,0.333374023,0.822265625,0.392333984,12.14599609,61.09619141,20.01953125
259271,0.271850586,0.714233398,0.558959961,18.73779297,83.80126953,26.73339844
259297,0.016357422,0.679321289,0.958496094,25.390625,90.14892578,28.93066406
259323,0.079956055,0.596191406,1.12890625,-1.525878906,21.24023438,16.96777344
259350,-0.323974609,0.349609375,1.836425781,53.7109375,21.78955078,8.666992188
259376,0.068115234,0.80065918,0.959716797,33.38623047,-17.82226563,-15.93017578
259402,0.163696289,0.665893555,0.690429688,-7.385253906,-51.51367188,-29.72412109
259428,0.126586914,0.767700195,0.739135742,-2.868652344,-68.05419922,-27.64892578
259455,0.264770508,0.82409668,0.557006836,3.234863281,-76.90429688,-30.33447266
259481,0.402832031,0.86340332,0.279296875,8.178710938,-70.25146484,-31.67724609
259507,0.446289063,0.899780273,0.21875,9.155273438,-59.93652344,-29.41894531
259533,0.443847656,0.986694336,0.126953125,15.38085938,-31.61621094,-22.94921875
259559,0.463378906,0.970336914,0.078491211,2.075195313,-3.784179688,-8.483886719
259586,0.401977539,0.960449219,0.162353516,3.356933594,20.99609375,2.990722656
259612,0.356201172,0.939453125,0.30078125,-6.652832031,49.31640625,24.47509766
259638,0.243286133,0.810302734,0.536254883,3.356933594,84.28955078,38.63525391
259664,0.232421875,0.680297852,0.785400391,4.211425781,90.20996094,39.91699219
259690,0.131103516,0.4921875,0.997070313,-45.34912109,25.32958984,30.39550781
259716,0.062866211,0.231323242,0.994995117,-16.96777344,1.647949219,28.99169922
259743,-0.135375977,0.721435547,1.457519531,63.17138672,3.356933594,-6.958007813
259769,0.080566406,0.739868164,0.770996094,20.75195313,-21.24023438,-5.004882813
259795,0.084228516,0.686401367,0.789794922,-3.41796875,-58.22753906,-26.12304688
259821,0.164306641,0.825195313,0.724121094,-2.197265625,-83.06884766,-28.56445313
259848,0.333862305,0.859375,0.435791016,0.915527344,-88.68408203,-35.33935547
259874,0.41796875,0.893188477,0.232910156,3.784179688,-80.68847656,-32.04345703
259900,0.444946289,0.944580078,0.146362305,7.263183594,-55.11474609,-21.54541016
259926,0.479858398,0.955444336,0.034057617,4.516601563,-32.65380859,-13.12255859
259952,0.478393555,0.93737793,0.017700195,-0.122070313,4.150390625,-0.061035156
259978,0.436523438,0.923583984,0.071166992,-3.967285156,39.97802734,12.32910156
260004,0.407226563,0.861816406,0.225341797,-2.9296875,62.92724609,19.83642578
260031,0.311401367,0.817504883,0.44909668,3.967285156,90.33203125,28.01513672
260057,0.206176758,0.767822266,0.673339844,3.601074219,102.9663086,31.73828125
260083,-0.020141602,0.782470703,1.208984375,-42.23632813,47.97363281,36.1328125
260109,-0.073242188,0.817871094,0.828735352,-31.73828125,11.35253906,19.83642578
260135,-0.332275391,0.535888672,1.577880859,35.09521484,16.29638672,-10.37597656
260161,-0.096191406,0.918823242,1.076416016,57.25097656,-1.525878906,-1.953125
260187,0.205078125,0.616088867,0.743652344,-3.967285156,-32.71484375,-10.25390625
260214,0.145751953,0.789794922,0.766113281,7.019042969,-74.46289063,-25.26855469
260240,0.286621094,0.81628418,0.594848633,4.39453125,-85.26611328,-27.40478516
260266,0.408081055,0.821166992,0.325317383,3.90625,-78.30810547,-30.51757813
260292,0.447387695,0.894165039,0.16003418,7.080078125,-59.14306641,-25.69580078
260318,0.472167969,0.934814453,0.101806641,3.967285156,-41.38183594,-21.42333984
260344,0.437255859,0.948730469,0.089233398,2.258300781,-9.643554688,-9.460449219
260371,0.40222168,0.934326172,0.142578125,-1.892089844,21.60644531,3.845214844
260397,0.356567383,0.904541016,0.254882813,-6.164550781,38.87939453,11.29150391
260423,0.337646484,0.783813477,0.447753906,-2.746582031,65.06347656,24.29199219
260449,0.375366211,0.63671875,0.477294922,9.338378906,93.20068359,27.40478516
260475,-0.066772461,0.871704102,1.075561523,-19.95849609,67.26074219,29.23583984
260501,-0.11328125,0.794921875,0.865722656,-31.18896484,14.89257813,16.05224609
260528,-0.220458984,0.541748047,1.594726563,41.19873047,15.50292969,-4.516601563
260554,-0.044189453,0.941650391,1.084960938,49.37744141,-6.103515625,-5.310058594
260580,0.184448242,0.652587891,0.720458984,-5.798339844,-33.87451172,-18.12744141
260606,0.09777832,0.805053711,0.890014648,-5.432128906,-74.52392578,-23.01025391
260632,0.205932617,0.80871582,0.757080078,-6.591796875,-87.40234375,-25.81787109
260658,0.317382813,0.778198242,0.458374023,-2.746582031,-86.48681641,-25.81787109
260685,0.422729492,0.812866211,0.255371094,2.990722656,-72.57080078,-23.31542969
260711,0.429199219,0.871704102,0.193847656,-1.46484375,-56.03027344,-19.53125
260737,0.549438477,0.927978516,0.049072266,-4.8828125,-39.97802734,-15.56396484
260763,0.541870117,0.947875977,-0.019165039,-4.516601563,-4.333496094,-7.568359375
260789,0.476318359,0.971801758,0.004150391,-0.48828125,36.1328125,7.385253906
260815,0.379638672,0.940795898,0.127441406,-1.953125,62.07275391,18.37158203
260842,0.243896484,0.822753906,0.466918945,0.915527344,95.64208984,31.25
260868,-0.006225586,0.720703125,1.075683594,1.037597656,100.5249023,38.94042969
260894,-0.35534668,-0.01159668,1.922363281,-4.699707031,71.53320313,31.18896484
260920,-0.501586914,0.172363281,2.266113281,-19.34814453,15.19775391,7.202148438
260946,0.026489258,0.833007813,1.083740234,64.27001953,-12.57324219,-1.647949219
260972,0.192626953,0.744995117,0.714477539,16.29638672,-18.92089844,-16.17431641
260999,0.123168945,0.684448242,0.773925781,-21.97265625,-70.19042969,-28.80859375
261025,0.240966797,0.777709961,0.670776367,-3.845214844,-87.95166016,-30.70068359
261051,0.306640625,0.809326172,0.430053711,1.342773438,-86.60888672,-34.72900391
261077,0.394165039,0.837524414,0.249511719,4.943847656,-80.38330078,-33.99658203
261103,0.43371582,0.893066406,0.126708984,10.98632813,-56.03027344,-28.80859375
261129,0.492675781,0.923828125,0.024047852,10.86425781,-32.59277344,-24.29199219
261156,0.483154297,0.960571289,-0.018920898,12.6953125,5.432128906,-21.97265625
261182,0.408935547,1.002197266,0.075073242,10.07080078,46.93603516,-5.126953125
261208,0.368774414,0.958129883,0.209838867,5.37109375,70.12939453,12.20703125
261234,0.222167969,0.83972168,0.565917969,-6.469726563,96.25244141,28.80859375
261261,0.038696289,0.786621094,0.877563477,-9.765625,100.8911133,39.48974609
261287,0.03527832,0.615234375,1.109985352,-31.86035156,-8.728027344,0.610351563
261313,-0.595092773,0.100585938,2.205078125,15.31982422,0.671386719,12.51220703
261339,0.147094727,0.710449219,1.07043457,37.41455078,-17.45605469,-8.544921875
261365,0.162963867,0.773803711,0.595092773,-20.44677734,-57.43408203,-28.3203125
261391,0.083984375,0.698852539,0.758666992,-16.66259766,-71.16699219,-31.67724609
261417,0.212402344,0.80456543,0.611694336,5.249023438,-80.81054688,-34.91210938
261444,0.319213867,0.878662109,0.37512207,12.75634766,-77.1484375,-34.30175781
261470,0.477661133,0.891601563,0.145874023,8.7890625,-69.76318359,-31.37207031
261496,0.5078125,0.979980469,0.002197266,7.080078125,-41.80908203,-21.36230469
261522,0.479980469,1.017944336,-0.071533203,-0.122070313,-2.868652344,-6.958007813
261548,0.407714844,1.005249023,-0.021850586,-6.34765625,23.37646484,4.39453125
261574,0.316772461,0.972290039,0.14465332,-15.25878906,58.71582031,21.17919922
261601,0.240112305,0.805419922,0.430908203,-15.38085938,93.07861328,34.66796875
261627,0.150390625,0.735473633,0.71862793,-12.32910156,103.515625,38.20800781
261653,0.049804688,0.581420898,1.183837891,-5.310058594,94.42138672,42.29736328
261679,-0.483154297,0.477416992,1.729980469,34.24072266,-6.286621094,-4.272460938
261705,-0.161499023,0.728881836,1.388305664,36.07177734,2.807617188,0.793457031
261731,0.180175781,0.802246094,0.588378906,-7.202148438,-38.39111328,-23.13232422
261758,0.068847656,0.735473633,0.831054688,-17.94433594,-60.97412109,-29.11376953
261784,0.104614258,0.848144531,0.783325195,-3.051757813,-72.265625,-26.18408203
261810,0.265014648,0.851806641,0.506713867,7.080078125,-78.97949219,-28.38134766
261836,0.340820313,0.856323242,0.286499023,8.544921875,-73.18115234,-25.93994141
261862,0.364868164,0.879272461,0.204345703,5.126953125,-61.95068359,-24.59716797
261888,0.442749023,0.89831543,0.034667969,2.624511719,-32.95898438,-19.71435547
261914,0.434326172,0.948242188,0.005004883,4.455566406,5.249023438,-13.36669922
261941,0.395141602,0.966918945,0.047729492,4.150390625,30.45654297,-6.164550781
261967,0.351074219,0.923828125,0.211547852,0.549316406,67.44384766,16.29638672
261993,0.198608398,0.865600586,0.517700195,3.112792969,102.5390625,37.109375
262019,0.055297852,0.759521484,0.845825195,-4.516601563,123.7792969,46.20361328
262045,-0.803833008,-0.237792969,2.419433594,-31.67724609,73.73046875,47.05810547
262072,-0.497436523,0.654418945,1.912841797,41.9921875,15.80810547,16.72363281
262098,-0.03137207,0.628417969,1.143676758,18.18847656,-37.17041016,-10.62011719
262124,0.116088867,0.723754883,0.598022461,-2.258300781,-60.79101563,-22.70507813
262150,0.075683594,0.771606445,0.766357422,-8.850097656,-82.27539063,-30.51757813
262177,0.288085938,0.756103516,0.523071289,4.150390625,-90.39306641,-36.62109375
262203,0.311401367,0.833496094,0.353515625,13.42773438,-83.31298828,-41.25976563
262229,0.410766602,0.860351563,0.154174805,16.90673828,-69.03076172,-38.14697266
262255,0.433837891,0.984741211,0.019165039,15.86914063,-38.20800781,-31.31103516
262281,0.441162109,1.019042969,-0.020263672,7.751464844,-11.71875,-21.11816406
262307,0.383911133,1.044433594,0.029663086,-2.502441406,29.11376953,2.380371094
262334,0.332885742,0.970336914,0.192749023,-3.601074219,71.53320313,25.87890625
262360,0.251708984,0.890869141,0.395019531,-7.080078125,87.46337891,33.14208984
262386,0.000488281,0.82043457,0.821655273,-15.19775391,95.21484375,40.34423828
262412,-0.026245117,0.741699219,0.83996582,-20.99609375,71.83837891,49.8046875
262438,-0.413085938,-0.072509766,1.734985352,-12.14599609,-6.164550781,10.00976563
262465,-0.084350586,0.756103516,1.236083984,23.07128906,-18.73779297,-3.479003906
262491,0.186279297,0.768920898,0.449462891,-16.47949219,-46.08154297,-31.67724609
262517,0.029296875,0.651977539,0.764282227,-32.2265625,-65.18554688,-32.28759766
262543,0.103027344,0.842895508,0.779418945,2.746582031,-87.64648438,-32.65380859
262569,0.262939453,0.856445313,0.472900391,15.07568359,-91.30859375,-37.04833984
262596,0.358764648,0.855102539,0.293823242,18.61572266,-83.12988281,-33.69140625
262622,0.410400391,0.924072266,0.134521484,13.48876953,-67.93212891,-29.54101563
262648,0.491210938,0.975219727,-0.03112793,0.732421875,-36.56005859,-21.24023438
262674,0.470825195,1.008789063,-0.050170898,-2.868652344,5.432128906,-5.126953125
262700,0.382568359,1.018066406,0.025268555,-5.493164063,32.59277344,9.094238281
262726,0.359375,0.90222168,0.179321289,-2.319335938,75.68359375,27.52685547
262753,0.267700195,0.76171875,0.515258789,-4.943847656,103.5766602,35.82763672
262779,0.027099609,0.782470703,0.841552734,-5.798339844,114.8071289,42.54150391
262805,0.142211914,0.673461914,0.699829102,-10.7421875,90.69824219,42.84667969
262831,-0.40246582,0.778564453,1.951049805,86.42578125,-28.68652344,8.117675781
262857,-0.106933594,1.016723633,1.305541992,31.79931641,-16.6015625,-13.671875
262883,0.201782227,0.818237305,0.472412109,-36.74316406,-49.07226563,-27.46582031
262910,0.122924805,0.709472656,0.838134766,-35.09521484,-81.84814453,-22.76611328
262936,0.192138672,0.802246094,0.734619141,-4.028320313,-86.36474609,-24.90234375
262962,0.308105469,0.803710938,0.46887207,11.53564453,-89.53857422,-34.79003906
262988,0.388671875,0.84765625,0.255859375,20.01953125,-79.95605469,-34.1796875
263014,0.406982422,0.945800781,0.095336914,16.41845703,-61.82861328,-32.04345703
263040,0.455932617,0.961791992,-0.036010742,7.507324219,-20.08056641,-18.73779297
263067,0.416870117,0.990356445,-0.044189453,-3.723144531,26.00097656,0
263093,0.365600586,0.963378906,0.026367188,-4.577636719,55.72509766,15.07568359
263119,0.254760742,0.902709961,0.291259766,-2.319335938,93.32275391,30.70068359
263145,0.02734375,0.857788086,0.705322266,0.854492188,111.0839844,41.38183594
263171,-0.015136719,0.725585938,1.145507813,-4.821777344,108.9477539,51.39160156
263198,-0.123168945,0.188720703,1.249023438,13.18359375,39.18457031,23.98681641
263224,-0.083496094,0.750244141,1.294189453,32.2265625,-14.70947266,-5.737304688
263250,0.133300781,0.56640625,0.737670898,-23.07128906,-45.04394531,-22.70507813
263276,0.039428711,0.825195313,0.75390625,-19.47021484,-55.29785156,-29.90722656
263302,0.143554688,0.782592773,0.758300781,-8.30078125,-81.23779297,-28.80859375
263328,0.222045898,0.829223633,0.533935547,5.676269531,-82.64160156,-34.91210938
263355,0.334350586,0.85168457,0.284545898,3.601074219,-81.29882813,-35.52246094
263381,0.368530273,0.91796875,0.129150391,6.958007813,-64.63623047,-32.16552734
263407,0.391723633,1.002441406,-0.01159668,4.272460938,-32.59277344,-20.75195313
263433,0.421508789,1.044555664,-0.018798828,-1.831054688,-6.225585938,-9.643554688
263459,0.381958008,1.052001953,-0.020141602,-12.57324219,35.64453125,12.87841797
263485,0.348022461,0.919799805,0.061645508,-15.99121094,77.51464844,27.77099609
263512,0.275756836,0.776977539,0.263427734,-7.202148438,104.1870117,34.42382813
263537,0.025756836,0.698242188,0.837524414,13.36669922,127.3193359,46.63085938
263564,-0.40625,0.574829102,1.567871094,-25.93994141,25.08544922,31.37207031
263590,-0.549804688,0.189697266,2.051147461,19.22607422,23.86474609,28.25927734
263616,0.151489258,0.508911133,1.128417969,17.578125,-21.78955078,-3.90625
263642,0.144897461,0.91027832,0.394165039,-3.173828125,-53.83300781,-32.53173828
263668,0.029296875,0.733154297,0.721557617,-42.72460938,-77.39257813,-32.77587891
263694,0.103393555,0.837524414,0.73059082,-13.54980469,-94.54345703,-34.85107422
263721,0.285400391,0.900634766,0.378417969,2.990722656,-92.04101563,-38.87939453
263747,0.353149414,0.892333984,0.21887207,2.9296875,-85.14404297,-35.15625
263773,0.432373047,0.920288086,0.0546875,4.455566406,-57.12890625,-27.77099609
263799,0.47277832,0.985717773,-0.039306641,2.075195313,-20.08056641,-13.671875
263825,0.430664063,1.002441406,-0.041259766,-6.34765625,7.934570313,-2.380371094
263851,0.392211914,0.984619141,0.015991211,-16.66259766,47.42431641,16.72363281
263878,0.286010742,0.908325195,0.268920898,-8.483886719,90.57617188,35.15625
263904,0.173706055,0.838134766,0.567138672,-4.028320313,111.5112305,44.37255859
263930,-0.010742188,0.718383789,1.141113281,-12.32910156,113.5864258,55.72509766
263956,0.285522461,0.053344727,1.17565918,-19.10400391,64.14794922,29.54101563
263982,-0.330200195,0.690551758,1.880859375,60.66894531,-6.286621094,13.30566406
264009,0.171386719,0.572509766,0.806762695,-6.530761719,-54.26025391,-0.854492188
264035,0.013061523,0.630249023,0.81628418,-22.21679688,-64.63623047,-23.74267578
264061,0.029907227,0.764282227,0.871704102,-14.70947266,-94.17724609,-32.59277344
264087,0.206176758,0.776489258,0.586181641,-5.126953125,-96.86279297,-36.43798828
264113,0.354003906,0.729614258,0.287353516,6.103515625,-88.37890625,-38.94042969
264140,0.397705078,0.821533203,0.174804688,26.30615234,-65.36865234,-37.78076172
264166,0.419555664,0.961791992,0.071777344,28.44238281,-42.35839844,-30.57861328
264192,0.49609375,1.035644531,-0.083862305,10.62011719,-7.446289063,-21.72851563
264218,0.437866211,1.097290039,-0.055786133,8.056640625,39.18457031,0.366210938
264244,0.364624023,1.078735352,0.123413086,17.39501953,69.58007813,18.85986328
264271,0.219970703,0.995117188,0.440795898,25.93994141,101.0742188,43.9453125
264297,0.036010742,0.783203125,0.964477539,17.94433594,107.0556641,56.15234375
264323,-0.064331055,0.765014648,1.271484375,-12.14599609,84.9609375,68.84765625
264349,-0.696899414,-0.047729492,2.131347656,25.14648438,-6.164550781,31.37207031
264375,0.055175781,0.819458008,1.067626953,29.47998047,-40.40527344,-17.02880859
264401,0.130493164,0.737426758,0.446166992,-12.08496094,-42.78564453,-20.08056641
264427,0.049926758,0.76171875,0.656982422,-39.00146484,-74.82910156,-30.57861328
264453,0.176391602,0.78918457,0.643188477,-16.11328125,-98.87695313,-36.19384766
264479,0.273925781,0.889526367,0.444091797,8.666992188,-99.609375,-43.33496094
264506,0.437011719,0.874511719,0.16796875,13.73291016,-92.28515625,-40.34423828
264532,0.522705078,0.932983398,0.010375977,14.95361328,-62.98828125,-33.99658203
264558,0.539550781,1.03137207,-0.114746094,9.155273438,-36.43798828,-26.79443359
264584,0.494995117,1.050170898,-0.083740234,-8.239746094,8.117675781,-11.16943359
264610,0.430908203,1.03503418,0.014160156,-13.91601563,52.79541016,22.4609375
264636,0.385864258,0.928710938,0.194091797,-8.972167969,84.9609375,37.04833984
264663,0.218505859,0.796142578,0.595825195,-1.159667969,112.2436523,48.828125
264689,-0.025878906,0.696289063,1.206298828,-7.873535156,112.1826172,55.35888672
264715,-0.401245117,0.523803711,0.907348633,-15.74707031,-20.99609375,12.45117188
264742,-0.146728516,0.664306641,1.661010742,67.19970703,-2.990722656,17.15087891
264768,0.155151367,0.559204102,0.752563477,-10.37597656,-36.37695313,-17.76123047
264794,0.094238281,0.760253906,0.656616211,-31.25,-61.40136719,-33.203125
264820,0.127685547,0.784667969,0.760375977,-24.65820313,-84.47265625,-29.78515625
264846,0.285522461,0.826660156,0.523681641,5.249023438,-90.94238281,-39.61181641
264873,0.369018555,0.876586914,0.274414063,14.09912109,-88.8671875,-36.56005859
264899,0.460083008,0.914794922,0.106811523,13.85498047,-77.88085938,-34.79003906
264925,0.538696289,0.993408203,-0.078979492,6.958007813,-43.88427734,-25.51269531
264951,0.48840332,1.060913086,-0.098510742,0.48828125,6.286621094,-2.563476563
264977,0.471801758,1.043823242,-0.061279297,-7.568359375,36.98730469,13.73291016
265004,0.400878906,0.929443359,0.161254883,-8.911132813,80.62744141,34.24072266
265030,0.229736328,0.7890625,0.588867188,-5.249023438,106.7504883,47.72949219
265056,0.049804688,0.806884766,0.923950195,-5.615234375,114.0136719,52.42919922
265082,-0.096313477,0.23059082,1.806884766,-28.19824219,72.08251953,43.27392578
265108,-0.342285156,0.509521484,1.880249023,59.44824219,6.774902344,17.15087891
265134,-0.059692383,0.806274414,1.239135742,23.49853516,-15.50292969,-3.173828125
265161,0.227783203,0.541503906,0.607910156,-8.850097656,-48.46191406,-23.98681641
265187,0.11315918,0.74206543,0.730712891,-15.07568359,-67.93212891,-28.68652344
265213,0.208251953,0.730224609,0.672851563,-8.728027344,-82.21435547,-38.51318359
265239,0.330688477,0.866821289,0.395141602,18.37158203,-80.62744141,-41.13769531
265265,0.440185547,0.953369141,0.154785156,20.38574219,-71.77734375,-34.60693359
265291,0.486694336,0.951049805,0.080200195,10.43701172,-47.18017578,-26.42822266
265318,0.502197266,1.029663086,-0.01171875,2.136230469,-21.54541016,-13.06152344
265344,0.489379883,1.025878906,-0.047851563,-11.41357422,24.65820313,5.798339844
265370,0.455566406,0.96472168,0.15222168,-7.934570313,67.62695313,23.92578125
265396,0.310668945,0.880126953,0.358520508,2.319335938,89.84375,33.56933594
265423,0.142456055,0.798217773,0.750366211,4.150390625,96.37451172,42.29736328
265449,0.083496094,0.581298828,1.009033203,-11.29150391,75.43945313,36.98730469
265475,-0.418212891,0.149902344,1.634887695,0.9765625,33.81347656,18.61572266
265501,-0.129516602,0.858032227,1.401611328,26.00097656,-16.6015625,-5.004882813
265527,0.314208984,0.58215332,0.457641602,-30.94482422,-46.50878906,-26.00097656
