timestamp,ax,ay,az,gx,gy,gz
412003,-0.024291992,0.917480469,0.422607422,1.037597656,-5.004882813,-3.234863281
412029,-0.024658203,0.917114258,0.425170898,1.220703125,-4.760742188,-3.662109375
412055,-0.030151367,0.925415039,0.427856445,1.953125,-4.272460938,-3.601074219
412081,-0.033203125,0.923706055,0.424804688,2.319335938,-4.272460938,-2.685546875
412107,-0.032714844,0.924804688,0.427490234,2.258300781,-4.577636719,-2.258300781
412133,-0.031616211,0.928588867,0.435058594,1.46484375,-4.699707031,-2.563476563
412159,-0.037231445,0.938232422,0.419555664,1.892089844,-4.577636719,-2.258300781
412185,-0.047119141,0.937255859,0.423950195,1.831054688,-4.455566406,-1.770019531
412211,-0.037963867,0.914916992,0.4296875,1.586914063,-4.760742188,-1.159667969
412237,-0.017578125,0.89855957,0.426879883,1.220703125,-5.37109375,-1.770019531
412264,-0.016479492,0.899536133,0.419189453,1.831054688,-5.554199219,-2.624511719
412290,-0.022338867,0.913452148,0.423828125,2.258300781,-5.554199219,-2.807617188
412316,-0.024169922,0.916015625,0.424438477,1.46484375,-6.042480469,-3.112792969
412342,-0.025390625,0.91784668,0.41796875,0.732421875,-6.164550781,-3.356933594
412368,-0.022338867,0.92199707,0.416625977,1.220703125,-5.493164063,-3.41796875
412395,-0.030883789,0.928222656,0.424560547,2.075195313,-4.638671875,-3.479003906
412421,-0.030273438,0.923461914,0.419067383,0.610351563,-4.943847656,-3.967285156
412447,-0.030761719,0.926025391,0.422119141,0.854492188,-4.39453125,-4.150390625
412473,-0.022949219,0.937255859,0.434326172,-0.305175781,-4.638671875,-4.943847656
412499,-0.017700195,0.968994141,0.454467773,0.122070313,-3.112792969,-4.943847656
412525,-0.008911133,0.976318359,0.48059082,0.732421875,-1.831054688,-4.028320313
412552,0.010986328,1.043579102,0.495849609,0.732421875,0.427246094,-1.770019531
412578,0.016357422,1.08605957,0.532592773,-8.117675781,0,1.586914063
412604,0.05456543,1.109130859,0.583007813,-12.75634766,-1.159667969,7.202148438
412630,0.085205078,1.173095703,0.624023438,-20.99609375,-3.967285156,18.37158203
412656,0.084106445,1.179321289,0.604125977,-35.94970703,-9.094238281,30.76171875
412683,0.072387695,1.173706055,0.612426758,-44.06738281,-11.23046875,39.24560547
412709,0.083251953,1.09362793,0.613525391,-56.88476563,-17.578125,49.19433594
412735,0.08984375,1.044677734,0.606811523,-65.73486328,-25.63476563,57.49511719
412761,0.078857422,1.027709961,0.593994141,-68.11523438,-28.99169922,63.41552734
412787,0.09362793,0.972412109,0.610839844,-68.60351563,-30.15136719,69.58007813
412813,0.119873047,0.908935547,0.630859375,-75.86669922,-35.40039063,73.60839844
412839,0.145874023,0.848022461,0.612670898,-80.87158203,-38.0859375,73.54736328
412866,0.168579102,0.787475586,0.613647461,-80.44433594,-35.82763672,72.63183594
412892,0.200073242,0.718505859,0.634765625,-73.85253906,-32.83691406,72.93701172
412918,0.215576172,0.675292969,0.629150391,-69.64111328,-32.04345703,73.42529297
412944,0.234619141,0.642700195,0.633544922,-67.93212891,-32.34863281,72.20458984
412970,0.263183594,0.594970703,0.683349609,-70.61767578,-33.38623047,70.43457031
412996,0.292236328,0.556762695,0.697509766,-72.87597656,-34.30175781,68.29833984
413023,0.360595703,0.469970703,0.680664063,-73.91357422,-35.09521484,66.77246094
413049,0.411132813,0.415893555,0.685302734,-71.77734375,-30.70068359,63.59863281
413075,0.399658203,0.391601563,0.73059082,-71.53320313,-25.93994141,60.72998047
413101,0.416503906,0.333251953,0.729248047,-75.56152344,-24.65820313,58.59375
413127,0.439819336,0.270751953,0.720214844,-81.11572266,-26.30615234,54.19921875
413154,0.45703125,0.20715332,0.727416992,-80.38330078,-24.23095703,50.47607422
413180,0.484741211,0.119140625,0.740600586,-75.56152344,-22.88818359,48.27880859
413206,0.513061523,0.082397461,0.732421875,-68.96972656,-21.30126953,44.06738281
413232,0.530395508,0.037475586,0.723388672,-66.04003906,-18.61572266,38.94042969
413259,0.542358398,-0.019287109,0.752441406,-62.31689453,-16.35742188,37.17041016
413285,0.568725586,-0.056396484,0.758300781,-56.70166016,-15.25878906,34.05761719
413311,0.569335938,-0.077758789,0.74206543,-53.22265625,-14.03808594,29.72412109
413337,0.592529297,-0.114990234,0.749267578,-50.10986328,-12.57324219,28.50341797
413363,0.607177734,-0.140380859,0.748168945,-44.12841797,-8.850097656,26.67236328
413389,0.580688477,-0.131958008,0.767700195,-43.70117188,-6.713867188,23.86474609
413415,0.595825195,-0.166259766,0.759643555,-45.59326172,-6.8359375,22.76611328
413442,0.59777832,-0.214477539,0.743774414,-45.65429688,-7.080078125,20.87402344
413468,0.565063477,-0.195556641,0.756591797,-43.88427734,-7.263183594,19.71435547
413494,0.556274414,-0.211181641,0.766967773,-45.83740234,-8.056640625,19.10400391
413520,0.544677734,-0.26550293,0.790649414,-46.75292969,-9.033203125,18.37158203
413547,0.582763672,-0.308837891,0.709838867,-45.41015625,-9.094238281,18.31054688
413573,0.57421875,-0.313598633,0.721923828,-44.86083984,-10.25390625,17.76123047
413599,0.561889648,-0.349975586,0.743408203,-43.02978516,-10.55908203,17.578125
413625,0.574462891,-0.375854492,0.721679688,-39.91699219,-10.25390625,16.17431641
413651,0.585449219,-0.402099609,0.692993164,-40.64941406,-11.29150391,15.07568359
413678,0.560913086,-0.398803711,0.703491211,-42.90771484,-13.91601563,14.22119141
413704,0.578735352,-0.462890625,0.694824219,-40.52734375,-11.35253906,12.63427734
413730,0.583374023,-0.471679688,0.672241211,-36.68212891,-10.80322266,11.04736328
413756,0.582275391,-0.469360352,0.662475586,-37.84179688,-12.20703125,10.25390625
413782,0.584106445,-0.515625,0.666748047,-37.71972656,-8.972167969,9.155273438
413809,0.581054688,-0.518310547,0.647705078,-35.33935547,-9.27734375,6.713867188
413835,0.590087891,-0.53112793,0.623413086,-34.48486328,-7.873535156,5.920410156
413861,0.578125,-0.524536133,0.614501953,-32.71484375,-6.408691406,5.065917969
413887,0.588256836,-0.551269531,0.630737305,-36.98730469,-7.202148438,4.577636719
413914,0.578979492,-0.555053711,0.616210938,-35.94970703,-4.8828125,4.39453125
413940,0.599487305,-0.557006836,0.57043457,-38.75732422,-4.821777344,6.34765625
413966,0.582885742,-0.58996582,0.558227539,-42.90771484,-7.690429688,6.530761719
413992,0.567749023,-0.582275391,0.575439453,-43.64013672,-8.117675781,8.117675781
414018,0.568481445,-0.594848633,0.551635742,-43.27392578,-7.934570313,11.35253906
414044,0.524658203,-0.629272461,0.526855469,-41.93115234,-9.338378906,12.39013672
414071,0.546630859,-0.678588867,0.507080078,-39.85595703,-9.887695313,15.44189453
414097,0.537475586,-0.716430664,0.495483398,-36.62109375,-7.751464844,11.65771484
414123,0.51550293,-0.714355469,0.491577148,-33.38623047,-11.84082031,8.056640625
414150,0.511962891,-0.702880859,0.481567383,-29.35791016,-12.45117188,5.249023438
414176,0.531616211,-0.743164063,0.451660156,-30.70068359,-15.99121094,7.873535156
414202,0.494628906,-0.703491211,0.448364258,-28.44238281,-15.80810547,8.178710938
414228,0.475708008,-0.697143555,0.451049805,-29.11376953,-16.66259766,6.896972656
414254,0.492553711,-0.740966797,0.407714844,-23.62060547,-14.34326172,4.333496094
414281,0.515014648,-0.767822266,0.363037109,-21.54541016,-16.54052734,0.244140625
414307,0.493530273,-0.750244141,0.336547852,-13.61083984,-14.46533203,-1.403808594
414333,0.508789063,-0.759033203,0.304077148,-8.422851563,-14.52636719,-3.356933594
414359,0.500244141,-0.733398438,0.260253906,-2.380371094,-12.87841797,-5.493164063
414385,0.497070313,-0.723266602,0.287231445,-4.516601563,-15.38085938,-6.34765625
414412,0.501708984,-0.722045898,0.301391602,-1.586914063,-14.83154297,-5.676269531
414438,0.509887695,-0.701416016,0.328125,1.098632813,-12.32910156,-3.601074219
414464,0.547851563,-0.727172852,0.354492188,-2.9296875,-13.00048828,0.244140625
414490,0.548217773,-0.750366211,0.405029297,-5.432128906,-13.48876953,1.403808594
414516,0.547363281,-0.789672852,0.423217773,-8.239746094,-16.54052734,0.915527344
414543,0.546875,-0.789794922,0.346069336,-0.793457031,-17.76123047,0.915527344
414569,0.583984375,-0.783813477,0.309570313,9.765625,-17.578125,2.502441406
414595,0.504272461,-0.717895508,0.350097656,21.17919922,-10.37597656,4.516601563
414621,0.522583008,-0.763671875,0.345336914,10.37597656,-10.25390625,5.798339844
414647,0.549316406,-0.805297852,0.309448242,-0.061035156,-13.42773438,3.90625
414674,0.569458008,-0.83996582,0.317993164,-2.563476563,-13.73291016,-0.427246094
414700,0.577392578,-0.834594727,0.34362793,4.272460938,-7.019042969,-3.784179688
414726,0.565429688,-0.797363281,0.336547852,5.126953125,-5.310058594,-7.202148438
414752,0.547973633,-0.759155273,0.348754883,5.798339844,-6.652832031,-7.080078125
414778,0.517700195,-0.670166016,0.363037109,9.338378906,-3.356933594,-3.479003906
414805,0.501098633,-0.683959961,0.365966797,9.582519531,-2.624511719,1.342773438
414831,0.48815918,-0.681762695,0.361572266,10.80322266,-3.784179688,5.37109375
414857,0.50769043,-0.75793457,0.358398438,9.826660156,-6.469726563,8.361816406
414884,0.518676758,-0.817749023,0.393066406,11.29150391,-6.896972656,6.530761719
414910,0.581298828,-0.862426758,0.349487305,8.605957031,-7.263183594,4.455566406
414936,0.590454102,-0.893432617,0.376342773,3.845214844,-8.850097656,-2.868652344
414962,0.590332031,-0.866455078,0.390014648,7.934570313,-7.141113281,-11.65771484
414988,0.567993164,-0.792480469,0.388549805,10.07080078,-4.455566406,-15.86914063
415014,0.551635742,-0.723266602,0.397705078,8.911132813,-4.455566406,-14.40429688
415041,0.495117188,-0.654052734,0.427124023,7.32421875,-3.662109375,-11.23046875
415067,0.49230957,-0.633789063,0.43347168,5.37109375,-4.638671875,-7.019042969
415093,0.502075195,-0.648803711,0.399414063,2.197265625,-7.446289063,-1.46484375
415119,0.520874023,-0.702514648,0.391845703,1.892089844,-9.582519531,3.540039063
415146,0.534790039,-0.736572266,0.4140625,-0.305175781,-11.35253906,4.455566406
415172,0.577026367,-0.805053711,0.380615234,-2.868652344,-13.00048828,2.44140625
415198,0.594116211,-0.838256836,0.366943359,-5.065917969,-12.08496094,-2.990722656
415225,0.577514648,-0.819458008,0.362670898,-2.807617188,-7.568359375,-8.239746094
415251,0.564697266,-0.80456543,0.371704102,1.831054688,-6.469726563,-9.338378906
415277,0.524047852,-0.697753906,0.397705078,7.141113281,-1.708984375,-9.216308594
415303,0.520996094,-0.680297852,0.393432617,3.295898438,-2.44140625,-5.126953125
415329,0.510375977,-0.654052734,0.402832031,2.197265625,-3.295898438,-1.953125
415356,0.534423828,-0.717651367,0.388916016,-1.037597656,-5.615234375,2.9296875
415382,0.543334961,-0.765258789,0.385986328,-3.723144531,-7.385253906,3.173828125
415408,0.546264648,-0.798339844,0.377319336,-3.112792969,-7.995605469,1.953125
415434,0.544067383,-0.787231445,0.377807617,1.281738281,-7.202148438,-1.831054688
415460,0.56237793,-0.786743164,0.352661133,-0.305175781,-8.178710938,-4.943847656
415487,0.558959961,-0.763671875,0.340087891,0.305175781,-3.356933594,-6.896972656
415513,0.546508789,-0.749755859,0.371704102,-5.004882813,-0.48828125,-8.30078125
415539,0.517944336,-0.747192383,0.44140625,1.281738281,3.234863281,-4.516601563
415565,0.498779297,-0.728759766,0.466796875,7.080078125,2.44140625,-1.098632813
415591,0.526855469,-0.765258789,0.421875,8.544921875,-2.9296875,-2.319335938
415618,0.546264648,-0.775512695,0.392578125,0.854492188,-9.948730469,-5.432128906
415644,0.569091797,-0.782592773,0.385864258,-2.624511719,-11.96289063,-6.896972656
415670,0.561889648,-0.749511719,0.383056641,-2.319335938,-11.59667969,-7.32421875
415696,0.563720703,-0.749023438,0.375976563,-4.333496094,-12.08496094,-6.591796875
415722,0.557128906,-0.734130859,0.37878418,-2.44140625,-11.10839844,-5.859375
415749,0.557250977,-0.746582031,0.369873047,-0.305175781,-8.422851563,-4.638671875
415775,0.548583984,-0.733642578,0.360351563,0.122070313,-8.666992188,-4.150390625
415801,0.55065918,-0.746704102,0.371826172,-1.342773438,-8.483886719,-4.272460938
415828,0.560302734,-0.748657227,0.360717773,-1.281738281,-7.995605469,-4.638671875
415854,0.570922852,-0.754516602,0.350952148,-1.281738281,-8.544921875,-5.004882813
415880,0.572509766,-0.738525391,0.369140625,-0.9765625,-8.911132813,-4.39453125
415906,0.57434082,-0.73840332,0.372314453,-1.037597656,-7.995605469,-4.211425781
415932,0.575317383,-0.734008789,0.350952148,0.549316406,-6.8359375,-3.723144531
415959,0.570068359,-0.737792969,0.356201172,-1.037597656,-7.934570313,-2.197265625
415985,0.55847168,-0.732666016,0.375488281,-2.380371094,-6.8359375,-1.281738281
416011,0.572265625,-0.740722656,0.363769531,-3.356933594,-6.8359375,-0.9765625
416037,0.5703125,-0.757202148,0.342651367,-2.746582031,-6.408691406,-0.549316406
416064,0.567016602,-0.755004883,0.342895508,-4.272460938,-7.751464844,-0.854492188
416090,0.563110352,-0.760131836,0.353393555,-4.211425781,-7.263183594,-0.793457031
416116,0.559326172,-0.773681641,0.349731445,-2.868652344,-5.859375,-2.014160156
416142,0.565673828,-0.777099609,0.329467773,0.671386719,-4.333496094,-2.136230469
416168,0.561279297,-0.758911133,0.354125977,2.9296875,-4.333496094,-2.258300781
416195,0.548461914,-0.756469727,0.369873047,1.953125,-4.8828125,-2.502441406
416221,0.560180664,-0.758911133,0.352783203,1.220703125,-5.554199219,-2.197265625
416247,0.558227539,-0.759887695,0.349121094,2.197265625,-5.004882813,-2.136230469
416273,0.546630859,-0.766723633,0.352539063,2.197265625,-5.859375,-2.563476563
416299,0.55065918,-0.766845703,0.34375,2.563476563,-5.615234375,-2.868652344
416326,0.551147461,-0.766723633,0.353149414,2.380371094,-5.493164063,-3.112792969
416352,0.549194336,-0.766601563,0.340820313,2.44140625,-5.187988281,-3.601074219
416378,0.554443359,-0.764404297,0.372436523,2.9296875,-4.699707031,-3.662109375
416404,0.545898438,-0.756835938,0.356567383,3.234863281,-4.699707031,-3.540039063
416430,0.552246094,-0.756469727,0.360473633,1.953125,-5.615234375,-3.662109375
416457,0.563476563,-0.761108398,0.354858398,2.197265625,-5.065917969,-3.234863281
416483,0.55847168,-0.757202148,0.360229492,2.136230469,-5.554199219,-2.746582031
416509,0.555053711,-0.759033203,0.364746094,1.892089844,-5.615234375,-2.868652344
416535,0.551147461,-0.762207031,0.350463867,2.319335938,-5.615234375,-2.868652344
416562,0.548828125,-0.755126953,0.353271484,1.953125,-6.408691406,-2.868652344
416588,0.55065918,-0.76184082,0.35534668,2.868652344,-5.493164063,-3.41796875
416614,0.555053711,-0.766357422,0.333129883,2.9296875,-5.065917969,-4.211425781
416640,0.557617188,-0.761474609,0.333496094,3.295898438,-4.638671875,-4.699707031
416666,0.55847168,-0.760253906,0.331665039,4.028320313,-2.9296875,-5.432128906
416693,0.552368164,-0.768920898,0.311889648,6.34765625,-0.122070313,-6.530761719
416719,0.549804688,-0.791870117,0.30859375,9.338378906,4.455566406,-8.178710938
416745,0.540283203,-0.831787109,0.326171875,18.00537109,9.216308594,-12.26806641
416771,0.537475586,-0.807006836,0.33605957,27.46582031,12.45117188,-18.24951172
416797,0.521118164,-0.772338867,0.346313477,33.26416016,15.50292969,-24.4140625
416824,0.542236328,-0.762207031,0.318359375,39.00146484,16.35742188,-28.74755859
416850,0.54699707,-0.711425781,0.349365234,51.51367188,21.11816406,-30.39550781
416876,0.544677734,-0.673339844,0.383911133,59.99755859,28.44238281,-34.97314453
416902,0.543212891,-0.616210938,0.434448242,66.58935547,34.91210938,-36.01074219
416928,0.566772461,-0.693359375,0.397827148,79.16259766,45.83740234,-36.49902344
416955,0.52734375,-0.607299805,0.489746094,98.75488281,49.19433594,-33.02001953
416981,0.505126953,-0.503662109,0.546264648,98.08349609,50.47607422,-34.85107422
417007,0.487915039,-0.480224609,0.557128906,100.8911133,52.734375,-35.33935547
417033,0.44921875,-0.409057617,0.548217773,108.7036133,57.12890625,-34.66796875
417059,0.386352539,-0.340454102,0.622680664,103.6987305,50.65917969,-36.92626953
417086,0.422729492,-0.330688477,0.706176758,91.18652344,41.9921875,-40.71044922
417112,0.448242188,-0.255981445,0.76159668,94.29931641,44.67773438,-40.16113281
417138,0.409667969,-0.229736328,0.828613281,95.703125,43.45703125,-39.67285156
417164,0.372680664,-0.143676758,0.845825195,96.00830078,37.35351563,-37.23144531
417190,0.375,-0.060058594,0.909179688,96.92382813,35.46142578,-34.91210938
417217,0.349365234,-0.033569336,0.917724609,95.15380859,33.32519531,-32.83691406
417244,0.313598633,0.078613281,0.913330078,100.3417969,30.82275391,-30.15136719
417270,0.339477539,0.093261719,0.957397461,99.67041016,30.51757813,-29.54101563
417296,0.307128906,0.102661133,0.901367188,103.9428711,32.53173828,-27.52685547
417322,0.288452148,0.194824219,0.830932617,112.8540039,32.65380859,-26.24511719
417348,0.272827148,0.279418945,0.88269043,105.46875,28.56445313,-28.44238281
417374,0.228881836,0.232788086,0.911499023,109.4360352,29.05273438,-26.79443359
417400,0.239501953,0.260009766,0.797119141,113.0371094,25.390625,-25.20751953
417427,0.176879883,0.384765625,0.796386719,112.9150391,21.97265625,-30.39550781
417453,0.14440918,0.414794922,0.849609375,104.9194336,15.19775391,-35.88867188
417479,0.138183594,0.464355469,0.860961914,101.6845703,10.92529297,-35.94970703
417505,0.162597656,0.506958008,0.793334961,90.45410156,-2.868652344,-37.65869141
417532,0.123901367,0.582763672,0.760986328,90.02685547,-6.530761719,-42.35839844
417558,0.083740234,0.630126953,0.776367188,87.46337891,-7.446289063,-47.42431641
417584,0.051147461,0.645996094,0.736206055,75.56152344,-20.99609375,-48.64501953
417610,0.144042969,0.688476563,0.622436523,59.32617188,-32.34863281,-52.734375
417636,0.130126953,0.764282227,0.654418945,54.93164063,-31.43310547,-58.95996094
417663,0.096801758,0.803100586,0.672485352,64.14794922,-23.25439453,-60.97412109
417689,0.089233398,0.895629883,0.638793945,74.76806641,-17.94433594,-58.95996094
417715,0.085327148,0.941894531,0.572998047,71.89941406,-16.11328125,-59.75341797
417741,0.072143555,1.021484375,0.608398438,62.13378906,-14.77050781,-58.22753906
417768,0.012695313,1.010986328,0.679077148,61.58447266,-11.04736328,-53.46679688
417794,0.014892578,1.022583008,0.6328125,51.81884766,-24.23095703,-43.45703125
417820,0.059814453,1.041748047,0.529907227,47.54638672,-27.52685547,-35.70556641
417846,0.073486328,0.974243164,0.59375,37.04833984,-25.69580078,-35.09521484
417872,0.065551758,0.922363281,0.600585938,45.95947266,-13.61083984,-38.33007813
417898,0.050292969,0.985717773,0.519897461,66.10107422,8.483886719,-35.64453125
417925,-0.046875,1.176513672,0.452270508,68.66455078,11.16943359,-33.44726563
417951,-0.083740234,1.373535156,0.580932617,11.41357422,-33.44726563,-12.32910156
417977,0.066772461,0.993530273,0.389160156,-0.610351563,-28.13720703,-22.88818359
418003,0.046508789,0.990478516,0.400146484,13.73291016,-4.821777344,-21.60644531
418029,-0.001464844,1.012817383,0.447631836,20.32470703,-1.647949219,-12.6953125
418056,-0.012695313,1.005004883,0.411865234,16.23535156,-8.972167969,-8.728027344
418082,-0.003295898,0.980957031,0.349487305,12.14599609,-11.35253906,-7.8125
418108,-0.018432617,0.990600586,0.391235352,10.00976563,-8.7890625,-5.493164063
418134,-0.014404297,0.96472168,0.38684082,7.507324219,-10.55908203,-3.540039063
418160,-0.018676758,0.945678711,0.353881836,5.981445313,-10.86425781,-4.089355469
418187,-0.042114258,0.945556641,0.328735352,6.591796875,-7.934570313,-4.943847656
418213,-0.051147461,0.936523438,0.333862305,7.202148438,-6.896972656,-5.126953125
418239,-0.065185547,0.933959961,0.362182617,7.568359375,-4.455566406,-6.591796875
418265,-0.042358398,0.95715332,0.360717773,6.225585938,-3.967285156,-7.385253906
418291,-0.035766602,0.996337891,0.394042969,5.249023438,-3.479003906,-7.32421875
418318,-0.016723633,1.052490234,0.469360352,4.455566406,-4.028320313,-5.187988281
418344,0.008056641,1.103515625,0.474243164,-2.197265625,-6.530761719,-1.037597656
418370,0.008544922,1.138549805,0.479614258,-8.239746094,-7.873535156,2.9296875
418396,-0.000854492,1.163818359,0.512207031,-17.578125,-9.948730469,10.25390625
418422,0.016113281,1.129150391,0.496337891,-26.24511719,-10.25390625,17.45605469
418448,0.021118164,1.116088867,0.485229492,-30.88378906,-10.49804688,22.21679688
418475,0.026611328,1.091430664,0.495605469,-42.41943359,-11.96289063,28.25927734
418501,0.061279297,1.036132813,0.491088867,-52.49023438,-15.50292969,33.203125
418527,0.051391602,1.036743164,0.512084961,-56.21337891,-15.31982422,36.98730469
418553,0.064453125,0.995727539,0.519287109,-65.49072266,-20.62988281,40.10009766
418579,0.097290039,0.955322266,0.534912109,-66.95556641,-19.95849609,43.39599609
418606,0.096313477,0.950073242,0.566894531,-67.81005859,-19.59228516,46.08154297
418632,0.106689453,0.919189453,0.600219727,-70.86181641,-19.65332031,46.81396484
418658,0.144165039,0.880981445,0.603027344,-77.08740234,-20.38574219,47.60742188
418684,0.151245117,0.87121582,0.614013672,-82.58056641,-23.68164063,49.92675781
418710,0.141479492,0.829223633,0.672241211,-86.05957031,-28.56445313,53.7109375
418736,0.178588867,0.775634766,0.690307617,-95.03173828,-34.30175781,55.11474609
418763,0.211181641,0.721313477,0.697631836,-108.4594727,-40.10009766,56.88476563
418789,0.214111328,0.685302734,0.735839844,-112.2436523,-42.66357422,56.57958984
418815,0.2421875,0.669677734,0.747924805,-116.7602539,-53.46679688,58.34960938
418841,0.343139648,0.468139648,0.776733398,-112.9150391,-54.93164063,60.97412109
418867,0.345581055,0.457519531,0.795532227,-107.7270508,-54.07714844,60.546875
418894,0.384521484,0.388427734,0.772094727,-107.4829102,-55.05371094,58.28857422
418920,0.42980957,0.285522461,0.764526367,-98.32763672,-50.23193359,57.80029297
418946,0.444213867,0.207519531,0.762451172,-89.66064453,-45.34912109,58.22753906
418972,0.473144531,0.178222656,0.732177734,-85.44921875,-43.33496094,56.39648438
418999,0.447753906,0.181640625,0.787841797,-91.12548828,-44.73876953,54.93164063
419025,0.464355469,0.081787109,0.787963867,-93.81103516,-46.02050781,55.72509766
419051,0.501708984,-0.019165039,0.750732422,-87.46337891,-46.93603516,57.43408203
419077,0.53515625,-0.095458984,0.69921875,-73.05908203,-43.57910156,58.77685547
419103,0.537475586,-0.096557617,0.716308594,-66.71142578,-42.66357422,56.39648438
419129,0.538208008,-0.168701172,0.736328125,-64.75830078,-43.9453125,54.19921875
419155,0.546264648,-0.188842773,0.69934082,-65.12451172,-47.42431641,49.25537109
419182,0.577758789,-0.250366211,0.655273438,-65.85693359,-47.36328125,46.32568359
419208,0.594726563,-0.299316406,0.630615234,-58.53271484,-44.61669922,45.53222656
419234,0.587036133,-0.33972168,0.643310547,-46.69189453,-37.65869141,44.61669922
419261,0.600952148,-0.372192383,0.556030273,-38.20800781,-31.79931641,41.13769531
419287,0.603637695,-0.390869141,0.5703125,-36.25488281,-28.74755859,38.33007813
419313,0.63659668,-0.439453125,0.586791992,-40.71044922,-26.97753906,35.76660156
419339,0.659423828,-0.436035156,0.620849609,-40.34423828,-20.38574219,33.50830078
419365,0.650268555,-0.488525391,0.595947266,-44.12841797,-15.01464844,32.40966797
419391,0.666503906,-0.482421875,0.568603516,-43.45703125,-10.07080078,32.89794922
419418,0.637817383,-0.546386719,0.580932617,-45.59326172,-5.920410156,30.2734375
419444,0.604125977,-0.548706055,0.567382813,-45.22705078,-6.469726563,27.64892578
419470,0.580322266,-0.572509766,0.507202148,-50.59814453,-10.37597656,24.23095703
419496,0.544189453,-0.591064453,0.490600586,-56.51855469,-16.35742188,21.97265625
419522,0.517700195,-0.630249023,0.475219727,-60.72998047,-21.30126953,21.97265625
419548,0.560668945,-0.655151367,0.398925781,-60.72998047,-24.71923828,20.69091797
419575,0.525146484,-0.663696289,0.369140625,-58.34960938,-25.390625,15.93017578
419601,0.518676758,-0.702270508,0.358642578,-56.15234375,-26.12304688,14.09912109
419627,0.516479492,-0.689941406,0.346557617,-52.61230469,-28.19824219,11.16943359
419653,0.516113281,-0.743286133,0.317993164,-52.734375,-31.12792969,7.629394531
419679,0.548095703,-0.784179688,0.28112793,-46.32568359,-31.31103516,5.676269531
419706,0.544799805,-0.812133789,0.291259766,-27.34375,-26.24511719,0.854492188
419732,0.5390625,-0.818115234,0.277832031,-10.86425781,-21.484375,-8.117675781
419758,0.592285156,-0.797851563,0.203857422,-4.150390625,-24.90234375,-9.765625
419784,0.599731445,-0.672851563,0.260986328,4.516601563,-19.71435547,-7.080078125
419810,0.629882813,-0.654052734,0.307006836,11.96289063,-12.81738281,-0.610351563
419837,0.619873047,-0.652587891,0.28527832,7.446289063,-17.63916016,4.39453125
419863,0.603515625,-0.688354492,0.25769043,-12.87841797,-23.25439453,6.652832031
419889,0.62878418,-0.792480469,0.189208984,-22.33886719,-24.16992188,6.652832031
419916,0.62902832,-0.853759766,0.171386719,-9.826660156,-15.625,6.103515625
419942,0.609375,-0.864990234,0.188964844,-1.708984375,-11.16943359,1.953125
419968,0.594970703,-0.851074219,0.228393555,5.615234375,-5.493164063,-4.821777344
419994,0.624633789,-0.815673828,0.18371582,7.507324219,-7.141113281,-8.361816406
420021,0.596191406,-0.747924805,0.216796875,12.08496094,-5.065917969,-9.399414063
420047,0.591796875,-0.693969727,0.253051758,14.09912109,-5.249023438,-6.591796875
420073,0.602416992,-0.668579102,0.236450195,10.31494141,-6.713867188,-2.014160156
420099,0.600585938,-0.698364258,0.231445313,4.699707031,-8.056640625,0.854492188
420125,0.591552734,-0.734130859,0.255371094,0.122070313,-9.887695313,2.563476563
420152,0.625732422,-0.802978516,0.243530273,1.770019531,-10.31494141,2.197265625
420178,0.632568359,-0.82043457,0.228027344,6.103515625,-7.019042969,0.427246094
420204,0.635131836,-0.811523438,0.219360352,3.845214844,-4.8828125,-3.967285156
420230,0.623168945,-0.775756836,0.2578125,1.098632813,-4.943847656,-6.8359375
420256,0.610229492,-0.741210938,0.262573242,3.356933594,-3.356933594,-6.408691406
420283,0.604003906,-0.704711914,0.267822266,5.249023438,-1.953125,-3.784179688
420309,0.631103516,-0.749511719,0.236328125,4.089355469,-1.770019531,-1.647949219
420335,0.650512695,-0.821044922,0.25,1.647949219,-0.549316406,-4.272460938
420361,0.639892578,-0.822753906,0.232421875,2.868652344,-0.305175781,-8.483886719
420387,0.628662109,-0.809326172,0.260375977,4.150390625,0.427246094,-13.85498047
420413,0.609008789,-0.764648438,0.280029297,9.826660156,2.563476563,-14.40429688
420440,0.591064453,-0.678833008,0.320678711,9.948730469,1.403808594,-12.39013672
420466,0.56652832,-0.655639648,0.332641602,4.39453125,-3.41796875,-8.911132813
420492,0.590332031,-0.666625977,0.318603516,0.244140625,-7.934570313,-3.967285156
420518,0.597412109,-0.670410156,0.318359375,0.671386719,-10.13183594,-1.098632813
420544,0.615966797,-0.69934082,0.300048828,0.427246094,-11.41357422,2.380371094
420571,0.641113281,-0.747192383,0.281982422,-0.854492188,-12.6953125,3.479003906
420597,0.650390625,-0.775146484,0.270141602,-2.075195313,-12.45117188,2.868652344
420623,0.661499023,-0.814819336,0.252807617,-3.41796875,-10.49804688,-0.122070313
420649,0.64074707,-0.802124023,0.243286133,-1.586914063,-7.873535156,-4.272460938
420676,0.640991211,-0.795043945,0.247070313,1.220703125,-5.004882813,-6.164550781
420702,0.624145508,-0.726806641,0.260131836,7.507324219,-2.685546875,-7.507324219
420728,0.597167969,-0.692016602,0.283691406,7.629394531,-2.197265625,-5.981445313
420754,0.596435547,-0.676391602,0.293212891,5.676269531,-3.662109375,-3.845214844
420780,0.607055664,-0.692993164,0.298217773,1.953125,-5.981445313,-0.854492188
420807,0.622192383,-0.729858398,0.281494141,0.244140625,-7.202148438,1.037597656
420833,0.626708984,-0.742675781,0.280517578,-0.610351563,-8.178710938,1.037597656
420859,0.640625,-0.763916016,0.27746582,-0.244140625,-7.32421875,-0.305175781
420885,0.645263672,-0.755981445,0.27734375,2.746582031,-5.798339844,-1.037597656
420911,0.640625,-0.752685547,0.284301758,2.380371094,-5.37109375,-1.953125
420937,0.622192383,-0.751220703,0.295288086,1.647949219,-5.065917969,-2.44140625
420964,0.614868164,-0.75793457,0.276977539,-0.244140625,-6.652832031,-2.990722656
420990,0.609008789,-0.749389648,0.273071289,1.098632813,-7.446289063,-3.662109375
421016,0.612182617,-0.736816406,0.287597656,1.708984375,-7.080078125,-4.028320313
421042,0.613647461,-0.743652344,0.272705078,2.563476563,-5.676269531,-4.455566406
421068,0.621582031,-0.73815918,0.27355957,1.953125,-6.103515625,-4.577636719
421095,0.631713867,-0.731201172,0.278320313,2.44140625,-5.37109375,-4.150390625
421121,0.635498047,-0.73828125,0.274780273,2.136230469,-4.089355469,-3.845214844
421147,0.63671875,-0.747680664,0.273681641,1.403808594,-3.845214844,-3.41796875
421173,0.626953125,-0.743164063,0.284179688,1.708984375,-3.479003906,-3.051757813
421199,0.619506836,-0.736450195,0.288574219,1.342773438,-4.333496094,-2.9296875
421226,0.624023438,-0.739990234,0.282104492,1.708984375,-4.150390625,-3.112792969
421252,0.62121582,-0.739257813,0.275268555,2.014160156,-5.310058594,-2.685546875
421278,0.612670898,-0.739501953,0.272338867,2.014160156,-6.042480469,-1.892089844
421304,0.615722656,-0.739379883,0.274536133,2.319335938,-5.920410156,-1.953125
421330,0.620483398,-0.736083984,0.278320313,3.051757813,-5.126953125,-2.197265625
421357,0.626342773,-0.734130859,0.278198242,2.990722656,-5.065917969,-1.831054688
421383,0.618652344,-0.733642578,0.285644531,1.586914063,-5.554199219,-1.46484375
421409,0.620483398,-0.734741211,0.281005859,2.563476563,-5.554199219,-1.037597656
421435,0.618164063,-0.739379883,0.282592773,4.333496094,-4.943847656,-0.427246094
421461,0.614990234,-0.743774414,0.281860352,3.295898438,-5.126953125,-0.061035156
421487,0.619506836,-0.754882813,0.28125,3.356933594,-4.39453125,-0.244140625
421514,0.618652344,-0.75390625,0.286254883,4.333496094,-3.112792969,-0.9765625
421540,0.616455078,-0.758789063,0.298339844,4.089355469,-3.295898438,-1.708984375
421566,0.614746094,-0.754638672,0.305175781,2.807617188,-4.028320313,-2.746582031
421592,0.612304688,-0.760009766,0.304077148,2.014160156,-4.516601563,-3.479003906
421618,0.614013672,-0.756713867,0.289306641,2.380371094,-5.676269531,-4.516601563
421645,0.614013672,-0.75793457,0.286743164,3.723144531,-5.554199219,-5.249023438
421671,0.610107422,-0.738891602,0.299316406,4.39453125,-5.187988281,-6.164550781
421697,0.624633789,-0.741821289,0.279174805,4.821777344,-4.516601563,-6.408691406
421723,0.614501953,-0.722900391,0.297851563,4.150390625,-5.004882813,-5.859375
421749,0.614379883,-0.722167969,0.300170898,2.685546875,-5.37109375,-5.676269531
421776,0.621582031,-0.727783203,0.292236328,3.234863281,-4.516601563,-5.004882813
421802,0.623901367,-0.726928711,0.294799805,4.089355469,-4.699707031,-3.662109375
421828,0.603881836,-0.700073242,0.314941406,5.37109375,-2.136230469,-3.601074219
421854,0.628417969,-0.728393555,0.324951172,3.967285156,-4.821777344,-2.258300781
421880,0.637451172,-0.738525391,0.30859375,2.319335938,-6.286621094,-2.197265625
421907,0.635253906,-0.739013672,0.30847168,1.586914063,-7.019042969,-2.136230469
421933,0.631713867,-0.743530273,0.318969727,1.892089844,-6.408691406,-1.953125
421959,0.615966797,-0.740356445,0.317504883,2.868652344,-5.37109375,-3.051757813
421985,0.619506836,-0.747070313,0.300537109,3.479003906,-4.8828125,-4.089355469
422011,0.616821289,-0.743530273,0.286987305,3.967285156,-6.164550781,-5.249023438
422037,0.617431641,-0.761230469,0.284179688,5.249023438,-3.295898438,-7.141113281
422063,0.61730957,-0.767944336,0.267578125,8.178710938,-0.671386719,-9.887695313
422090,0.619873047,-0.794189453,0.240112305,17.76123047,6.8359375,-14.22119141
422116,0.614624023,-0.775024414,0.277954102,28.74755859,13.54980469,-17.94433594
422142,0.606201172,-0.752441406,0.289550781,32.89794922,18.00537109,-21.484375
422168,0.547851563,-0.720458984,0.325073242,42.96875,25.63476563,-25.32958984
422194,0.577636719,-0.693237305,0.3046875,49.49951172,24.65820313,-27.77099609
422221,0.54675293,-0.654907227,0.336425781,62.98828125,28.74755859,-22.39990234
422247,0.578735352,-0.663330078,0.383666992,99.12109375,42.54150391,-31.49414063
422273,0.533813477,-0.536987305,0.451171875,110.534668,42.35839844,-34.30175781
422299,0.592895508,-0.573608398,0.452148438,111.7553711,40.40527344,-34.1796875
422325,0.536254883,-0.467895508,0.483398438,118.1640625,44.06738281,-35.33935547
422352,0.508178711,-0.403808594,0.564697266,110.2905273,39.85595703,-41.19873047
422378,0.526611328,-0.393798828,0.586181641,105.46875,39.24560547,-43.82324219
422404,0.4765625,-0.358642578,0.6015625,109.3139648,40.58837891,-45.16601563
422430,0.511962891,-0.267822266,0.62097168,112.121582,40.77148438,-46.875
422456,0.476928711,-0.190795898,0.695678711,106.3232422,43.33496094,-50.23193359
422483,0.442260742,-0.178955078,0.709350586,105.46875,42.23632813,-52.06298828
422509,0.482543945,-0.079467773,0.737670898,115.4785156,45.65429688,-50.96435547
422535,0.436279297,0.013916016,0.755371094,124.4506836,51.08642578,-51.02539063
422561,0.389526367,0.080444336,0.745727539,127.2583008,51.57470703,-52.24609375
422587,0.384155273,0.181396484,0.802001953,122.5585938,47.60742188,-55.41992188
422613,0.380004883,0.20690918,0.815185547,114.2578125,44.25048828,-54.07714844
422639,0.298583984,0.246704102,0.821044922,121.6430664,46.02050781,-53.22265625
422666,0.277832031,0.35168457,0.789794922,123.4741211,39.30664063,-54.93164063
422692,0.235961914,0.472167969,0.777587891,117.2485352,33.99658203,-58.65478516
422718,0.182250977,0.475708008,0.774536133,114.8071289,26.79443359,-58.83789063
422745,0.137084961,0.538818359,0.748779297,117.6757813,14.16015625,-55.78613281
422771,0.145874023,0.663208008,0.715454102,112.3046875,4.577636719,-55.48095703
422797,0.129272461,0.721679688,0.739624023,110.1074219,0.366210938,-53.28369141
422823,0.09777832,0.776000977,0.763793945,109.7412109,-3.723144531,-50.17089844
422849,0.129516602,0.848510742,0.704833984,104.7973633,-12.39013672,-46.875
422876,0.158691406,0.895385742,0.613891602,91.49169922,-17.21191406,-43.82324219
422902,0.139648438,0.919921875,0.629760742,82.88574219,-18.79882813,-44.00634766
422928,0.168212891,0.942382813,0.580078125,74.15771484,-20.44677734,-45.77636719
422954,0.153198242,0.977661133,0.485839844,75.01220703,-21.05712891,-43.02978516
422981,0.160766602,0.998535156,0.458251953,73.48632813,-20.44677734,-40.95458984
423007,0.159423828,1.045898438,0.527099609,65.4296875,-16.05224609,-38.94042969
423033,0.133422852,1.063720703,0.512084961,49.07226563,-23.68164063,-35.09521484
423059,0.110229492,1.107910156,0.474121094,48.15673828,-23.74267578,-29.90722656
423085,0.145507813,1.054077148,0.46887207,46.44775391,-29.41894531,-25.26855469
423112,0.13684082,1.085083008,0.478759766,58.34960938,-19.22607422,-19.71435547
423138,0.12512207,1.141601563,0.458740234,55.41992188,-16.29638672,-15.50292969
423164,0.142211914,1.135253906,0.439697266,39.85595703,-18.31054688,-10.86425781
423190,0.144287109,1.201416016,0.450073242,20.56884766,-24.47509766,-3.295898438
423217,0.165161133,1.143066406,0.449462891,11.59667969,-21.72851563,-1.220703125
423243,0.156738281,1.082641602,0.398193359,10.55908203,-14.58740234,1.403808594
423269,0.131591797,1.056640625,0.31640625,7.263183594,-9.948730469,4.39453125
423295,0.115356445,1.033325195,0.310058594,1.647949219,-9.643554688,6.286621094
423321,0.109130859,0.959228516,0.288452148,-3.479003906,-9.826660156,7.873535156
423347,0.107788086,0.911376953,0.25402832,-1.770019531,-7.8125,7.32421875
423373,0.119873047,0.890869141,0.245117188,0.305175781,-6.286621094,6.34765625
423400,0.113647461,0.898681641,0.251342773,2.136230469,-5.798339844,3.112792969
423426,0.117675781,0.895874023,0.265380859,4.272460938,-5.37109375,-0.732421875
423452,0.125610352,0.907348633,0.262329102,7.568359375,-4.272460938,-3.723144531
423478,0.119384766,0.940429688,0.292114258,11.10839844,-2.502441406,-5.615234375
423504,0.123535156,0.961303711,0.313964844,8.7890625,-3.356933594,-7.446289063
423531,0.130737305,0.950561523,0.294433594,5.493164063,-6.652832031,-8.361816406
423557,0.139526367,0.965209961,0.285400391,5.798339844,-8.605957031,-7.8125
423583,0.142578125,0.970458984,0.289550781,9.155273438,-6.408691406,-8.117675781
423609,0.136474609,0.976928711,0.278198242,9.826660156,-4.150390625,-7.995605469
423635,0.124023438,0.989013672,0.268676758,9.216308594,-2.380371094,-8.422851563
423661,0.108276367,0.992797852,0.26171875,9.704589844,-1.342773438,-8.422851563
423688,0.090698242,0.992553711,0.268432617,10.13183594,-2.807617188,-6.408691406
423714,0.096313477,0.994384766,0.273071289,9.826660156,-4.943847656,-5.004882813
423740,0.107543945,0.984008789,0.276000977,8.7890625,-7.629394531,-3.90625
423766,0.098388672,0.97668457,0.256835938,9.094238281,-9.27734375,-3.540039063
423793,0.093017578,0.962768555,0.238891602,10.13183594,-10.55908203,-3.967285156
423819,0.090209961,1.003295898,0.27746582,14.70947266,-9.216308594,-4.943847656
423845,0.126586914,1.041625977,0.312744141,14.83154297,-9.399414063,-3.295898438
423871,0.154907227,1.075439453,0.322875977,12.20703125,-9.582519531,-1.770019531
423897,0.193725586,1.163696289,0.359619141,7.568359375,-9.521484375,1.647949219
423923,0.211425781,1.223022461,0.402954102,-1.953125,-11.77978516,10.00976563
423949,0.225830078,1.223022461,0.400390625,-8.239746094,-14.16015625,17.15087891
423976,0.248291016,1.235961914,0.371337891,-14.09912109,-11.16943359,25.32958984
424002,0.258544922,1.214233398,0.38269043,-18.18847656,-5.615234375,34.60693359
424028,0.268066406,1.206420898,0.363037109,-24.23095703,-6.042480469,41.015625
424054,0.276000977,1.188476563,0.33605957,-35.03417969,0.671386719,47.48535156
424080,0.28918457,1.151733398,0.307250977,-55.72509766,-7.995605469,56.76269531
424107,0.277709961,1.131713867,0.3203125,-72.50976563,-11.90185547,64.08691406
424133,0.304321289,1.051147461,0.321411133,-79.1015625,-10.31494141,66.83349609
424159,0.304321289,1.001831055,0.352783203,-82.82470703,-5.859375,69.15283203
424185,0.315185547,0.96875,0.383666992,-85.02197266,-3.723144531,71.41113281
424211,0.33190918,0.928588867,0.427734375,-90.51513672,-3.540039063,72.265625
424237,0.36730957,0.857788086,0.466430664,-95.52001953,-5.065917969,74.15771484
424263,0.386108398,0.817382813,0.486938477,-98.32763672,-6.530761719,75.50048828
424289,0.393676758,0.776611328,0.533813477,-103.9428711,-10.13183594,76.72119141
424315,0.416748047,0.665771484,0.587402344,-106.6894531,-14.52636719,77.27050781
424341,0.462890625,0.589599609,0.590209961,-102.6000977,-15.13671875,77.75878906
424367,0.469970703,0.542480469,0.598876953,-95.64208984,-13.00048828,75.92773438
424394,0.483154297,0.476074219,0.651733398,-97.04589844,-15.74707031,73.48632813
424420,0.487915039,0.406982422,0.678466797,-103.1494141,-21.78955078,70.25146484
424446,0.544067383,0.333618164,0.674804688,-107.9711914,-23.62060547,67.50488281
424472,0.543212891,0.214111328,0.647094727,-109.0698242,-24.90234375,63.90380859
424498,0.559814453,0.130981445,0.60534668,-103.8208008,-21.24023438,62.25585938
424525,0.547851563,0.140014648,0.635498047,-104.0649414,-20.69091797,59.02099609
424551,0.526245117,0.056030273,0.682250977,-109.2529297,-23.19335938,56.82373047
424577,0.561523438,-0.039672852,0.633666992,-106.7504883,-23.07128906,53.7109375
424603,0.583618164,-0.06652832,0.609985352,-106.4453125,-25.45166016,51.39160156
424629,0.590698242,-0.110717773,0.635986328,-107.1166992,-29.54101563,49.13330078
424656,0.622070313,-0.231933594,0.622314453,-93.75,-26.67236328,48.64501953
424682,0.637207031,-0.267211914,0.57800293,-77.20947266,-21.36230469,48.58398438
424708,0.624145508,-0.273193359,0.581298828,-66.10107422,-19.53125,46.38671875
424734,0.579101563,-0.303466797,0.616210938,-75.43945313,-25.14648438,39.18457031
424761,0.634887695,-0.407836914,0.594482422,-82.70263672,-29.296875,35.58349609
424787,0.662353516,-0.483764648,0.521240234,-67.3828125,-22.58300781,34.11865234
424813,0.627319336,-0.447631836,0.521850586,-52.55126953,-16.84570313,34.24072266
424839,0.614868164,-0.487915039,0.533203125,-53.58886719,-18.31054688,32.65380859
424865,0.616333008,-0.551269531,0.523681641,-50.23193359,-16.29638672,27.40478516
424892,0.642333984,-0.620361328,0.474243164,-40.89355469,-10.00976563,22.76611328
424918,0.617919922,-0.651489258,0.479248047,-34.42382813,-7.507324219,14.34326172
424944,0.62121582,-0.612670898,0.467651367,-35.58349609,-7.32421875,11.23046875
424970,0.577270508,-0.619384766,0.47253418,-35.58349609,-5.187988281,2.990722656
424996,0.588012695,-0.632080078,0.434692383,-37.84179688,-10.00976563,-1.46484375
425023,0.608520508,-0.633056641,0.455566406,-36.68212891,-9.826660156,-3.112792969
425049,0.616455078,-0.612792969,0.441772461,-29.296875,-8.056640625,-6.408691406
425075,0.619384766,-0.565307617,0.422607422,-30.76171875,-10.68115234,-6.896972656
425101,0.584716797,-0.565551758,0.438354492,-32.71484375,-10.68115234,-5.249023438
425127,0.613647461,-0.570068359,0.411621094,-25.81787109,-8.7890625,2.44140625
425154,0.630371094,-0.610717773,0.425292969,-15.07568359,-6.34765625,8.361816406
425180,0.642700195,-0.663085938,0.412231445,-11.47460938,-6.713867188,9.094238281
425206,0.684448242,-0.745727539,0.390625,-12.20703125,-10.31494141,4.516601563
425232,0.688842773,-0.755981445,0.366333008,-5.065917969,-7.873535156,-0.732421875
425259,0.682861328,-0.737915039,0.377197266,-1.098632813,-6.225585938,-4.943847656
425285,0.659423828,-0.681762695,0.401245117,0.671386719,-5.187988281,-8.117675781
425311,0.634643555,-0.615112305,0.400146484,-1.953125,-7.080078125,-7.32421875
425337,0.644897461,-0.600219727,0.389282227,-1.647949219,-8.422851563,-4.516601563
425363,0.611206055,-0.571533203,0.404907227,1.770019531,-5.737304688,0.549316406
425390,0.621337891,-0.639526367,0.403320313,-4.211425781,-8.7890625,4.333496094
425416,0.638916016,-0.681274414,0.388549805,-8.850097656,-13.00048828,4.638671875
425442,0.696166992,-0.750244141,0.343017578,-7.8125,-12.6953125,0.305175781
425468,0.655517578,-0.724365234,0.358764648,2.990722656,-5.37109375,-3.90625
425494,0.642578125,-0.706665039,0.368896484,-14.09912109,-6.408691406,-6.958007813
425521,0.637084961,-0.668701172,0.370605469,-1.586914063,-7.934570313,-7.8125
425547,0.629150391,-0.604125977,0.375976563,3.295898438,-3.723144531,-6.164550781
425573,0.633789063,-0.606445313,0.403076172,4.028320313,-2.624511719,-1.708984375
425599,0.640380859,-0.646118164,0.393554688,1.037597656,-3.90625,-0.549316406
425625,0.66394043,-0.680786133,0.397827148,-0.9765625,-5.249023438,0.061035156
425652,0.657592773,-0.689575195,0.380371094,1.342773438,-2.685546875,-2.136230469
425678,0.658081055,-0.692871094,0.382324219,-1.403808594,-5.676269531,-2.990722656
425704,0.644775391,-0.672363281,0.399536133,-0.915527344,-4.699707031,-3.234863281
425730,0.64050293,-0.650268555,0.40234375,0.183105469,-5.493164063,-2.563476563
425756,0.639770508,-0.652709961,0.399414063,0.244140625,-5.310058594,-1.831054688
425782,0.641601563,-0.662841797,0.379272461,-2.807617188,-7.385253906,-1.46484375
425808,0.655761719,-0.682128906,0.368286133,-3.601074219,-7.568359375,-0.9765625
425835,0.658325195,-0.697387695,0.374145508,-1.46484375,-5.187988281,-1.342773438
425861,0.647949219,-0.697021484,0.380249023,-0.9765625,-3.723144531,-3.356933594
425887,0.654541016,-0.694458008,0.37121582,-2.380371094,-4.39453125,-5.310058594
425913,0.650268555,-0.682250977,0.380249023,-0.671386719,-3.90625,-5.737304688
425939,0.645996094,-0.666748047,0.39440918,2.136230469,-3.845214844,-5.310058594
425966,0.641967773,-0.659423828,0.388061523,4.516601563,-3.234863281,-4.760742188
425992,0.645507813,-0.659301758,0.381713867,4.516601563,-3.234863281,-4.333496094
426018,0.637084961,-0.657836914,0.386962891,3.112792969,-4.699707031,-3.662109375
426044,0.647338867,-0.665405273,0.397827148,2.990722656,-4.333496094,-2.990722656
426071,0.655395508,-0.668701172,0.388916016,2.868652344,-2.990722656,-2.990722656
426097,0.647216797,-0.682983398,0.38684082,-0.305175781,-5.981445313,-2.9296875
426123,0.652709961,-0.678344727,0.405761719,-1.647949219,-7.873535156,-3.234863281
426149,0.654418945,-0.680664063,0.407836914,0.427246094,-7.019042969,-3.90625
426176,0.648925781,-0.675292969,0.388916016,0.793457031,-6.958007813,-4.638671875
426202,0.653198242,-0.677368164,0.367553711,0.183105469,-7.934570313,-4.821777344
426228,0.649902344,-0.658813477,0.384155273,1.708984375,-6.652832031,-4.638671875
426254,0.656005859,-0.65625,0.381469727,2.319335938,-5.676269531,-4.638671875
426281,0.647216797,-0.658447266,0.370239258,1.46484375,-6.34765625,-4.455566406
426307,0.641113281,-0.656494141,0.373779297,0.9765625,-6.408691406,-4.211425781
426333,0.65246582,-0.67175293,0.380859375,0.610351563,-5.798339844,-4.028320313
426359,0.643188477,-0.660766602,0.387573242,1.708984375,-5.004882813,-4.272460938
426385,0.659545898,-0.673828125,0.377441406,0.915527344,-6.530761719,-5.004882813
426411,0.662109375,-0.670410156,0.383422852,1.586914063,-6.469726563,-4.516601563
426438,0.655395508,-0.669067383,0.385986328,1.159667969,-4.699707031,-4.211425781
426464,0.665771484,-0.658691406,0.380737305,1.159667969,-5.676269531,-3.90625
426490,0.669311523,-0.658935547,0.384277344,1.220703125,-4.699707031,-3.601074219
426516,0.655517578,-0.664672852,0.385864258,1.342773438,-4.272460938,-3.356933594
426543,0.651245117,-0.66003418,0.376098633,-0.061035156,-5.554199219,-2.746582031
426569,0.653686523,-0.662841797,0.37878418,0.793457031,-5.615234375,-2.502441406
426595,0.658813477,-0.662109375,0.375854492,2.502441406,-4.8828125,-2.685546875
426621,0.655395508,-0.665283203,0.375366211,2.258300781,-4.028320313,-2.563476563
426647,0.64831543,-0.655639648,0.376708984,1.46484375,-4.943847656,-2.624511719
426674,0.65234375,-0.662475586,0.384521484,1.770019531,-4.943847656,-2.319335938
426700,0.657714844,-0.669189453,0.380615234,2.44140625,-4.577636719,-2.502441406
426726,0.657592773,-0.669189453,0.389892578,1.770019531,-4.39453125,-2.746582031
426752,0.651733398,-0.670532227,0.399536133,1.46484375,-4.089355469,-3.479003906
426778,0.668579102,-0.677246094,0.387939453,0.915527344,-5.859375,-4.272460938
426805,0.659057617,-0.6484375,0.407348633,2.380371094,-5.920410156,-4.455566406
426831,0.658325195,-0.647094727,0.408935547,1.098632813,-6.774902344,-4.028320313
426857,0.650756836,-0.648193359,0.384033203,1.281738281,-6.774902344,-2.868652344
426883,0.650878906,-0.647338867,0.391235352,0.671386719,-8.239746094,-1.770019531
426910,0.654907227,-0.668457031,0.385620117,0.610351563,-7.995605469,-1.708984375
426936,0.66418457,-0.677490234,0.374145508,1.281738281,-7.202148438,-2.624511719
426962,0.662231445,-0.683349609,0.364501953,2.197265625,-4.516601563,-4.211425781
426988,0.656860352,-0.677368164,0.365478516,3.051757813,-3.601074219,-4.821777344
427014,0.654052734,-0.671386719,0.368041992,2.502441406,-3.112792969,-5.859375
427040,0.655273438,-0.650024414,0.376953125,3.112792969,-3.356933594,-5.737304688
427067,0.662719727,-0.648071289,0.388793945,2.258300781,-3.479003906,-5.676269531
427093,0.661010742,-0.64074707,0.399414063,2.319335938,-3.051757813,-5.310058594
427119,0.652832031,-0.634399414,0.395629883,1.953125,-4.943847656,-3.356933594
427145,0.650390625,-0.622192383,0.399658203,2.197265625,-6.225585938,-2.197265625
427172,0.654418945,-0.638671875,0.403564453,3.295898438,-6.530761719,-0.793457031
427198,0.661865234,-0.658935547,0.388427734,2.990722656,-7.141113281,0.427246094
427224,0.653930664,-0.663330078,0.390258789,3.112792969,-6.225585938,0
427250,0.661865234,-0.6875,0.373535156,3.295898438,-6.469726563,-0.854492188
427276,0.663208008,-0.694091797,0.377441406,4.211425781,-3.90625,-3.051757813
427303,0.65625,-0.688720703,0.379516602,4.028320313,-1.831054688,-5.676269531
427329,0.655151367,-0.694702148,0.379272461,3.845214844,-1.342773438,-7.385253906
427355,0.660644531,-0.675292969,0.399047852,3.90625,-1.342773438,-9.155273438
427381,0.663085938,-0.647705078,0.412963867,3.845214844,-1.220703125,-10.07080078
427407,0.664672852,-0.631469727,0.428100586,3.662109375,-1.525878906,-9.765625
427434,0.654296875,-0.605834961,0.436767578,1.892089844,-2.563476563,-7.507324219
427460,0.650512695,-0.592285156,0.435668945,0.183105469,-5.432128906,-3.967285156
427486,0.649291992,-0.603027344,0.435791016,0.671386719,-6.225585938,-1.770019531
427512,0.65246582,-0.608032227,0.425537109,1.46484375,-7.080078125,0.793457031
427539,0.660644531,-0.649414063,0.409423828,1.098632813,-8.422851563,2.502441406
427565,0.66015625,-0.661987305,0.407714844,1.647949219,-8.239746094,2.075195313
427591,0.663330078,-0.680908203,0.405761719,1.708984375,-7.751464844,0.549316406
427617,0.664794922,-0.689819336,0.397338867,1.647949219,-5.981445313,-2.197265625
427643,0.667114258,-0.682128906,0.391235352,2.197265625,-5.249023438,-3.784179688
427670,0.653564453,-0.645751953,0.41015625,2.075195313,-5.065917969,-4.699707031
427696,0.654174805,-0.637329102,0.411499023,1.281738281,-4.333496094,-4.8828125
427722,0.654663086,-0.629882813,0.412109375,1.708984375,-4.272460938,-4.333496094
427748,0.652587891,-0.621704102,0.416870117,1.098632813,-5.126953125,-2.624511719
427774,0.661010742,-0.641357422,0.414428711,1.281738281,-5.432128906,-1.831054688
427800,0.662353516,-0.649291992,0.406982422,2.075195313,-5.249023438,-1.403808594
427826,0.655273438,-0.65625,0.410888672,1.647949219,-5.737304688,-1.46484375
427853,0.644287109,-0.657470703,0.403442383,0.9765625,-6.286621094,-2.075195313
427879,0.650268555,-0.65612793,0.395629883,2.44140625,-5.920410156,-2.197265625
427905,0.654296875,-0.662475586,0.404296875,1.708984375,-6.042480469,-2.685546875
427931,0.663574219,-0.656005859,0.401611328,1.159667969,-5.432128906,-3.41796875
427958,0.662963867,-0.659912109,0.436767578,1.708984375,-4.39453125,-4.150390625
427984,0.662963867,-0.65222168,0.404663086,1.403808594,-4.8828125,-4.516601563
428010,0.654418945,-0.639038086,0.418579102,2.136230469,-4.333496094,-4.089355469
428036,0.647949219,-0.638061523,0.409301758,1.953125,-4.577636719,-3.723144531
428062,0.646118164,-0.657226563,0.399414063,2.380371094,-4.150390625,-3.845214844
428088,0.628662109,-0.672729492,0.376831055,3.90625,-3.967285156,-5.554199219
428115,0.62487793,-0.696166992,0.340942383,8.117675781,-0.48828125,-9.582519531
428141,0.619506836,-0.716308594,0.307617188,17.33398438,6.469726563,-13.42773438
428167,0.563964844,-0.719726563,0.308349609,46.44775391,23.74267578,-20.32470703
428193,0.579345703,-0.706420898,0.306396484,70.3125,32.47070313,-27.52685547
428219,0.530273438,-0.635742188,0.33581543,87.40234375,36.68212891,-32.65380859
428245,0.531616211,-0.597045898,0.415649414,120.9106445,57.43408203,-49.49951172
428271,0.531982422,-0.466430664,0.454467773,121.2768555,53.22265625,-50.72021484
428298,0.52722168,-0.45690918,0.463500977,116.5161133,54.62646484,-56.76269531
428324,0.529296875,-0.396240234,0.530883789,119.4458008,55.96923828,-61.58447266
428350,0.49987793,-0.286865234,0.612060547,120.4833984,56.57958984,-64.81933594
428376,0.491455078,-0.249389648,0.643676758,117.3095703,55.17578125,-68.42041016
428402,0.474365234,-0.181274414,0.679321289,113.6474609,51.63574219,-70.43457031
428428,0.460571289,-0.098754883,0.700561523,117.1264648,49.98779297,-73.2421875
428455,0.422851563,-0.027709961,0.750732422,123.1079102,50.17089844,-76.47705078
428481,0.379272461,0.083984375,0.780517578,123.1079102,43.27392578,-76.96533203
428507,0.389770508,0.156738281,0.742919922,127.2583008,39.48974609,-76.72119141
428533,0.349853516,0.260742188,0.766113281,134.0942383,40.77148438,-77.33154297
428559,0.346191406,0.352050781,0.810546875,132.2631836,35.33935547,-77.45361328
428586,0.296508789,0.450927734,0.753417969,137.7563477,32.71484375,-74.27978516
428612,0.248413086,0.526611328,0.743041992,142.3339844,27.58789063,-70.43457031
428638,0.238891602,0.658691406,0.748535156,138.9160156,24.71923828,-69.09179688
428664,0.203613281,0.732788086,0.754150391,130.1269531,21.484375,-66.65039063
428691,0.193481445,0.756835938,0.615844727,121.4599609,15.74707031,-60.91308594
428717,0.178955078,0.858764648,0.607910156,115.3564453,9.948730469,-58.41064453
428744,0.164306641,0.908935547,0.637573242,102.6000977,8.850097656,-58.16650391
428770,0.106811523,0.953735352,0.625488281,94.29931641,6.530761719,-53.77197266
428796,0.063354492,1.021484375,0.586181641,81.84814453,-6.530761719,-43.88427734
428822,0.187011719,0.850952148,0.41796875,51.45263672,-58.34960938,-29.47998047
428848,0.087890625,1.059326172,0.565063477,66.71142578,-10.80322266,-37.47558594
428874,0.050170898,1.079589844,0.552124023,61.46240234,-17.82226563,-29.05273438
428900,0.130493164,1.056518555,0.438964844,49.19433594,-37.78076172,-14.03808594
428927,0.141357422,1.018310547,0.445068359,40.46630859,-45.59326172,-2.197265625
428953,0.153442383,1.068115234,0.486816406,49.19433594,-30.51757813,-16.17431641
428979,0.140869141,1.066040039,0.450805664,54.87060547,-18.5546875,-18.85986328
429005,0.189697266,1.043823242,0.37097168,50.65917969,-20.32470703,-15.86914063
429031,0.195068359,1.043823242,0.373779297,47.60742188,-18.00537109,-14.22119141
429058,0.176879883,1.00793457,0.318603516,43.88427734,-14.83154297,-13.30566406
429084,0.159790039,0.997802734,0.275390625,39.55078125,-11.71875,-13.79394531
429110,0.196166992,1.108032227,0.199829102,30.2734375,-18.73779297,-10.98632813
429136,0.168579102,1.009399414,0.261108398,4.577636719,-27.46582031,-9.216308594
429162,0.184204102,0.953613281,0.244262695,6.225585938,-25.57373047,-8.911132813
429189,0.184204102,0.996582031,0.244262695,19.34814453,-13.97705078,-10.62011719
429215,0.176391602,0.996582031,0.21472168,23.19335938,-8.728027344,-11.47460938
429241,0.161743164,0.977905273,0.17590332,21.30126953,-8.605957031,-10.92529297
429267,0.169311523,0.959472656,0.194824219,20.38574219,-4.638671875,-14.89257813
429293,0.143188477,0.983520508,0.229614258,20.56884766,-0.48828125,-16.54052734
429319,0.192260742,1.042114258,0.226074219,19.04296875,2.197265625,-17.88330078
429346,0.236206055,1.103393555,0.274414063,13.36669922,11.35253906,-22.33886719
429372,0.122802734,1.091674805,0.342895508,10.43701172,18.5546875,-20.69091797
429398,0.034790039,1.130737305,0.256591797,8.422851563,14.28222656,-8.728027344
429424,0.043334961,1.08203125,0.218505859,-1.098632813,5.676269531,-4.516601563
429450,0.067016602,1.063110352,0.221069336,-1.037597656,2.136230469,-1.220703125
429477,0.072021484,1.064086914,0.247924805,-5.37109375,-2.563476563,1.892089844
429503,0.071044922,1.017333984,0.26159668,-10.62011719,-4.272460938,4.39453125
429529,0.052001953,0.994750977,0.262084961,-9.094238281,-2.868652344,4.943847656
429555,0.042480469,0.988769531,0.249633789,-5.249023438,-2.197265625,3.479003906
429581,0.065551758,0.975830078,0.230224609,-8.483886719,-7.385253906,1.831054688
429608,0.077636719,0.984130859,0.224487305,-8.7890625,-8.7890625,1.037597656
429634,0.088500977,0.973510742,0.233154297,-7.873535156,-7.141113281,-0.427246094
429660,0.09387207,0.973754883,0.231201172,-5.798339844,-6.225585938,-0.671386719
429686,0.1015625,1.005981445,0.237304688,-4.455566406,-5.737304688,-0.9765625
429712,0.108886719,1.021728516,0.258422852,-4.760742188,-4.943847656,0.183105469
429739,0.110351563,1.037841797,0.267211914,-6.286621094,-4.39453125,2.197265625
429765,0.119506836,1.046264648,0.260131836,-9.033203125,-4.150390625,4.333496094
429791,0.127807617,1.055053711,0.280029297,-13.671875,-2.868652344,6.042480469
429817,0.133544922,1.062866211,0.28137207,-17.33398438,-1.831054688,9.216308594
429843,0.135009766,1.059448242,0.288085938,-20.75195313,-1.098632813,13.30566406
429870,0.143066406,1.051269531,0.286987305,-21.24023438,0.610351563,15.99121094
429896,0.149780273,1.057128906,0.299560547,-19.71435547,3.784179688,21.42333984
429922,0.157836914,1.036499023,0.293334961,-18.92089844,6.713867188,26.42822266
429948,0.171875,1.012329102,0.294921875,-18.00537109,10.43701172,29.11376953
429975,0.141601563,1.053344727,0.338745117,-19.22607422,12.32910156,31.37207031
430001,0.166992188,1.042602539,0.317871094,-27.34375,4.211425781,37.78076172
430027,0.182739258,1.029663086,0.344970703,-27.46582031,4.39453125,41.9921875
430053,0.204101563,1.018188477,0.368652344,-29.41894531,3.967285156,47.97363281
430079,0.225463867,1.001831055,0.40246582,-38.0859375,4.211425781,50.23193359
430106,0.247924805,0.962646484,0.401367188,-43.33496094,5.126953125,50.72021484
430132,0.261108398,0.93371582,0.449707031,-44.921875,4.39453125,51.87988281
430158,0.287353516,0.921142578,0.492675781,-46.44775391,0.854492188,55.17578125
430184,0.313232422,0.889770508,0.504272461,-47.05810547,0.9765625,56.51855469
430210,0.341308594,0.870239258,0.51953125,-50.90332031,1.281738281,56.76269531
430237,0.34387207,0.860595703,0.527709961,-58.16650391,-1.220703125,56.57958984
430263,0.358154297,0.810913086,0.553588867,-62.13378906,-4.333496094,57.49511719
430289,0.3984375,0.745483398,0.553955078,-59.14306641,-4.577636719,59.5703125
430315,0.403686523,0.712036133,0.535400391,-55.11474609,-3.662109375,60.24169922
430342,0.418945313,0.703735352,0.524291992,-53.16162109,-2.44140625,60.60791016
430368,0.437988281,0.625732422,0.53527832,-53.58886719,-2.746582031,60.97412109
430394,0.443237305,0.565429688,0.566650391,-51.81884766,-1.46484375,59.02099609
430420,0.452880859,0.540161133,0.583862305,-50.90332031,0.183105469,56.51855469
430446,0.479125977,0.497924805,0.572631836,-51.7578125,-0.183105469,54.26025391
430473,0.498291016,0.424194336,0.612304688,-51.14746094,-1.037597656,50.96435547
430499,0.516967773,0.394042969,0.655395508,-46.20361328,0.793457031,47.18017578
430525,0.510620117,0.384643555,0.666748047,-44.12841797,2.685546875,44.00634766
430551,0.53112793,0.339233398,0.669677734,-42.29736328,2.9296875,39.97802734
430578,0.536987305,0.290405273,0.719970703,-40.95458984,3.540039063,37.65869141
430604,0.533935547,0.262084961,0.760375977,-41.07666016,2.685546875,35.88867188
430630,0.550537109,0.243530273,0.734985352,-44.921875,0.9765625,33.14208984
430656,0.542724609,0.208374023,0.764160156,-46.02050781,-1.46484375,30.57861328
430682,0.557739258,0.185424805,0.825439453,-46.63085938,-4.150390625,29.66308594
430708,0.559692383,0.13659668,0.860107422,-45.10498047,-7.202148438,27.34375
430735,0.584472656,0.102539063,0.828613281,-43.09082031,-9.826660156,24.47509766
430761,0.586303711,0.112915039,0.792602539,-42.96875,-13.48876953,22.09472656
430787,0.598999023,0.05090332,0.816040039,-42.48046875,-16.54052734,22.09472656
430813,0.584350586,0.022094727,0.814331055,-42.66357422,-15.93017578,18.00537109
430840,0.602172852,0.002197266,0.794189453,-43.76220703,-16.96777344,15.25878906
430866,0.602783203,-0.036743164,0.776733398,-40.64941406,-15.44189453,12.14599609
430892,0.61706543,-0.071655273,0.778686523,-33.93554688,-12.45117188,9.033203125
430918,0.592407227,-0.060668945,0.778076172,-32.34863281,-15.86914063,7.141113281
430944,0.618408203,-0.076782227,0.72277832,-32.40966797,-13.73291016,2.624511719
430971,0.610473633,-0.046264648,0.707275391,-32.95898438,-9.338378906,0.549316406
430997,0.631713867,-0.090942383,0.75378418,-34.48486328,-10.7421875,1.159667969
431023,0.656616211,-0.107543945,0.717285156,-32.2265625,-6.591796875,-1.953125
431049,0.616333008,-0.011474609,0.697143555,-35.76660156,-6.225585938,-1.892089844
431076,0.627807617,-0.105712891,0.753540039,-46.32568359,-9.948730469,0.427246094
431102,0.637451172,-0.167724609,0.758544922,-42.60253906,-7.507324219,0.366210938
431128,0.616455078,-0.125488281,0.733032227,-31.73828125,-1.403808594,-0.183105469
431154,0.64831543,-0.150512695,0.757324219,-31.49414063,-0.061035156,0.244140625
431180,0.612792969,-0.145019531,0.788085938,-34.30175781,-3.601074219,0.366210938
431207,0.651123047,-0.215332031,0.760498047,-42.29736328,-7.080078125,1.342773438
431233,0.656738281,-0.205932617,0.754394531,-37.23144531,-7.995605469,3.90625
431259,0.646972656,-0.246948242,0.795410156,-31.06689453,-2.197265625,2.563476563
431285,0.649536133,-0.276733398,0.796508789,-26.97753906,-6.774902344,4.272460938
431311,0.657958984,-0.325561523,0.74621582,-24.65820313,-6.896972656,3.723144531
431338,0.64453125,-0.302490234,0.754516602,-21.54541016,-5.37109375,2.44140625
431364,0.604980469,-0.280273438,0.781005859,-20.20263672,-6.774902344,1.342773438
431390,0.611816406,-0.309936523,0.736572266,-15.80810547,-7.263183594,0.244140625
431416,0.609619141,-0.294799805,0.698730469,-13.42773438,-7.995605469,0.244140625
431442,0.602783203,-0.2890625,0.723388672,-12.26806641,-9.582519531,0.793457031
431469,0.606933594,-0.287597656,0.717773438,-7.019042969,-8.666992188,0.610351563
431495,0.609130859,-0.290771484,0.695922852,-7.8125,-9.27734375,-1.037597656
431521,0.607055664,-0.284057617,0.705444336,-8.850097656,-10.25390625,-2.075195313
431547,0.624755859,-0.294311523,0.71862793,-10.86425781,-12.81738281,-2.624511719
431574,0.635375977,-0.307006836,0.690429688,-9.338378906,-11.23046875,-4.089355469
431600,0.654174805,-0.332519531,0.694335938,-9.094238281,-9.765625,-4.638671875
431626,0.657226563,-0.305664063,0.717163086,-12.14599609,-7.690429688,-4.39453125
431652,0.65612793,-0.315307617,0.721557617,-18.92089844,-6.896972656,-5.493164063
431679,0.661987305,-0.329345703,0.705566406,-23.25439453,-7.446289063,-6.591796875
431705,0.659423828,-0.353759766,0.659790039,-28.07617188,-6.774902344,-6.652832031
431731,0.656860352,-0.353637695,0.676269531,-30.39550781,-6.042480469,-5.920410156
431757,0.690673828,-0.383789063,0.672241211,-27.46582031,-0.915527344,-5.37109375
431783,0.642456055,-0.362182617,0.67199707,-25.08544922,-0.305175781,-4.39453125
431810,0.654174805,-0.37878418,0.655395508,-32.95898438,-1.647949219,-4.760742188
431836,0.65234375,-0.393920898,0.650878906,-30.88378906,-0.366210938,-4.333496094
431862,0.701171875,-0.421630859,0.612426758,-26.3671875,1.342773438,-3.234863281
431888,0.635131836,-0.379394531,0.656005859,-23.86474609,2.624511719,-4.150390625
431914,0.635009766,-0.391601563,0.651489258,-27.34375,2.136230469,-3.601074219
431941,0.635620117,-0.419067383,0.661254883,-26.42822266,2.868652344,-2.990722656
431967,0.624267578,-0.421142578,0.663208008,-22.70507813,2.258300781,-2.990722656
431993,0.613647461,-0.419677734,0.656494141,-22.21679688,-15.25878906,-3.41796875
432019,0.624511719,-0.467041016,0.645874023,-19.65332031,-0.610351563,-4.089355469
432046,0.612060547,-0.464233398,0.657714844,-9.704589844,0.915527344,-4.39453125
432072,0.605102539,-0.448608398,0.668579102,-6.774902344,-2.624511719,-4.577636719
432098,0.620849609,-0.472290039,0.653442383,-3.723144531,-3.845214844,-4.8828125
432124,0.638305664,-0.476806641,0.641967773,0.244140625,-4.577636719,-4.821777344
432150,0.629516602,-0.466552734,0.637939453,1.708984375,-5.249023438,-5.798339844
432177,0.630615234,-0.461425781,0.634887695,0.305175781,-6.103515625,-6.591796875
432203,0.643676758,-0.476806641,0.621704102,1.708984375,-5.187988281,-6.774902344
432229,0.637084961,-0.463134766,0.626586914,5.310058594,-2.807617188,-6.530761719
432255,0.626831055,-0.452636719,0.62878418,4.699707031,-3.173828125,-6.286621094
432282,0.630371094,-0.449707031,0.637084961,2.075195313,-4.760742188,-6.591796875
432308,0.634033203,-0.462524414,0.631103516,4.821777344,-2.563476563,-7.141113281
432334,0.626586914,-0.458007813,0.625244141,6.34765625,-2.685546875,-7.141113281
432360,0.626586914,-0.432373047,0.658813477,5.554199219,-3.967285156,-5.798339844
432386,0.620849609,-0.442138672,0.650024414,4.39453125,-4.577636719,-6.042480469
432413,0.630859375,-0.459228516,0.639526367,4.760742188,-5.554199219,-5.859375
432439,0.625854492,-0.450317383,0.649658203,7.080078125,-5.310058594,-6.408691406
432465,0.635498047,-0.452392578,0.654663086,9.094238281,-5.065917969,-7.934570313
432491,0.638793945,-0.45715332,0.647338867,12.45117188,-3.662109375,-8.850097656
432517,0.638427734,-0.455566406,0.656738281,20.62988281,-0.061035156,-9.704589844
432544,0.625244141,-0.418945313,0.674194336,28.74755859,2.624511719,-10.07080078
432570,0.615600586,-0.396362305,0.677490234,29.66308594,1.708984375,-10.55908203
432596,0.625854492,-0.395996094,0.679199219,29.60205078,1.770019531,-10.62011719
432622,0.62878418,-0.397949219,0.646606445,34.05761719,4.760742188,-10.98632813
432649,0.629394531,-0.384155273,0.642456055,39.36767578,7.934570313,-11.10839844
432675,0.611328125,-0.350952148,0.693115234,44.61669922,10.7421875,-11.16943359
432701,0.622314453,-0.346313477,0.700073242,51.20849609,13.48876953,-11.29150391
432727,0.609130859,-0.309814453,0.687011719,59.63134766,17.51708984,-12.63427734
432753,0.579711914,-0.274291992,0.720581055,61.76757813,17.15087891,-14.03808594
432779,0.557128906,-0.259399414,0.768310547,64.57519531,15.86914063,-15.25878906
432806,0.572509766,-0.258911133,0.765625,80.01708984,18.24951172,-16.35742188
432832,0.570556641,-0.229492188,0.73034668,90.20996094,20.62988281,-18.06640625
432858,0.526489258,-0.095703125,0.769042969,94.97070313,18.85986328,-20.5078125
432885,0.521728516,-0.100219727,0.816162109,93.68896484,18.00537109,-23.98681641
432911,0.495483398,-0.056640625,0.834594727,98.93798828,19.34814453,-24.96337891
432937,0.498535156,0.024169922,0.826293945,95.03173828,17.45605469,-25.63476563
432963,0.452026367,0.086181641,0.841918945,88.56201172,12.93945313,-28.80859375
432990,0.468505859,0.109130859,0.852050781,82.51953125,8.361816406,-31.12792969
433016,0.475585938,0.164428711,0.83984375,76.04980469,5.920410156,-31.55517578
433042,0.457275391,0.174926758,0.811889648,77.88085938,6.225585938,-32.34863281
433068,0.454833984,0.215820313,0.796875,82.64160156,8.361816406,-35.21728516
433094,0.439208984,0.300537109,0.813476563,78.30810547,6.530761719,-36.25488281
433121,0.430419922,0.313964844,0.791870117,74.95117188,2.685546875,-36.80419922
433147,0.424072266,0.331176758,0.719238281,81.11572266,2.9296875,-36.98730469
433173,0.401489258,0.433959961,0.751708984,84.35058594,3.112792969,-37.47558594
433199,0.374755859,0.48034668,0.737792969,82.45849609,0.915527344,-38.26904297
433226,0.371337891,0.512207031,0.690795898,83.67919922,-2.136230469,-38.51318359
433252,0.400756836,0.519775391,0.621704102,84.89990234,-2.44140625,-38.69628906
433278,0.349609375,0.596313477,0.636474609,88.62304688,0.366210938,-41.13769531
433304,0.325561523,0.639038086,0.627319336,92.16308594,1.770019531,-42.41943359
433331,0.323486328,0.673339844,0.601196289,94.54345703,2.258300781,-42.60253906
433357,0.33581543,0.71875,0.545654297,94.29931641,0.48828125,-41.74804688
433383,0.283203125,0.780273438,0.561401367,93.93310547,0.793457031,-43.39599609
433409,0.275024414,0.804199219,0.544555664,94.17724609,-0.122070313,-43.9453125
433435,0.274780273,0.857788086,0.471191406,94.36035156,-4.333496094,-41.62597656
433462,0.252563477,0.923095703,0.404541016,91.18652344,-9.216308594,-38.26904297
433488,0.237915039,0.957397461,0.409545898,86.60888672,-10.62011719,-37.04833984
433514,0.228149414,1.009033203,0.391357422,81.35986328,-11.35253906,-36.80419922
433540,0.206665039,1.034667969,0.345092773,73.18115234,-15.25878906,-33.81347656
433566,0.197265625,1.047241211,0.327148438,66.71142578,-17.63916016,-31.49414063
433592,0.193847656,1.054199219,0.312866211,57.92236328,-21.17919922,-28.13720703
433618,0.212768555,1.07043457,0.255371094,51.51367188,-24.35302734,-25.51269531
433644,0.21496582,1.106079102,0.25,48.46191406,-24.35302734,-22.70507813
433670,0.19921875,1.109863281,0.232177734,44.98291016,-22.33886719,-20.08056641
433696,0.204589844,1.146118164,0.196289063,39.42871094,-20.56884766,-17.45605469
433723,0.210083008,1.157470703,0.205078125,29.60205078,-23.13232422,-13.36669922
433749,0.220092773,1.137084961,0.207763672,17.578125,-18.43261719,-12.32910156
433775,0.211547852,1.122436523,0.177001953,10.62011719,-8.728027344,-11.77978516
433801,0.208129883,1.133178711,0.16394043,8.850097656,-2.258300781,-9.216308594
433828,0.184448242,1.104614258,0.167114258,-0.427246094,-8.605957031,-4.8828125
433854,0.182373047,1.088012695,0.174804688,-4.455566406,-4.150390625,-2.685546875
433880,0.189453125,1.066772461,0.162109375,-12.32910156,-5.37109375,-0.061035156
433906,0.181762695,1.057128906,0.155029297,-17.76123047,-5.554199219,2.258300781
433932,0.178955078,1.029418945,0.161132813,-27.16064453,-6.652832031,4.150390625
433958,0.180541992,1.017944336,0.171142578,-32.47070313,-7.263183594,6.591796875
433985,0.191040039,0.987426758,0.197631836,-32.04345703,-6.042480469,7.751464844
434011,0.201782227,0.958496094,0.227905273,-27.95410156,-3.356933594,7.629394531
434037,0.207275391,0.958740234,0.237915039,-24.47509766,-1.220703125,5.798339844
434063,0.203369141,0.973876953,0.255371094,-25.26855469,-2.44140625,5.737304688
434090,0.215454102,0.940185547,0.263427734,-26.00097656,-6.530761719,5.126953125
434116,0.214233398,0.909667969,0.299560547,-19.83642578,-5.432128906,3.295898438
434142,0.208862305,0.917602539,0.301513672,-14.6484375,-5.004882813,3.845214844
434168,0.216918945,0.928222656,0.32019043,-7.873535156,-3.234863281,2.624511719
434194,0.221557617,0.922973633,0.337158203,-7.507324219,-5.37109375,0.427246094
434221,0.208984375,0.962158203,0.346679688,-5.493164063,-4.150390625,0.915527344
434247,0.224975586,0.987915039,0.326660156,-5.249023438,-3.90625,1.037597656
434273,0.243286133,1.012329102,0.341796875,-9.033203125,-4.272460938,3.41796875
434299,0.244506836,1.023193359,0.357788086,-13.00048828,-3.112792969,5.37109375
434325,0.229614258,1.069580078,0.389282227,-21.17919922,-0.305175781,8.605957031
434351,0.239868164,1.099121094,0.41394043,-31.43310547,-3.540039063,18.00537109
434378,0.279541016,1.052246094,0.400024414,-38.87939453,-6.34765625,22.03369141
434404,0.298217773,1.01574707,0.434082031,-45.8984375,-8.7890625,27.95410156
434430,0.31652832,0.978637695,0.468017578,-51.08642578,-6.042480469,31.55517578
434456,0.324951172,0.973266602,0.463378906,-55.60302734,-1.708984375,33.02001953
434482,0.342041016,0.965820313,0.496948242,-65.79589844,1.708984375,33.93554688
434509,0.352416992,0.912719727,0.560791016,-77.57568359,5.737304688,35.27832031
434535,0.35534668,0.872314453,0.575317383,-85.51025391,8.666992188,36.37695313
434561,0.343261719,0.843017578,0.603271484,-91.06445313,9.887695313,36.86523438
434587,0.335205078,0.812744141,0.61328125,-101.9287109,8.483886719,37.71972656
434613,0.339477539,0.72253418,0.665405273,-115.6005859,1.098632813,37.71972656
434640,0.348266602,0.65612793,0.697021484,-119.3237305,-2.197265625,39.18457031
434666,0.376831055,0.593139648,0.722167969,-119.3847656,-5.065917969,40.10009766
434692,0.370117188,0.489624023,0.736083984,-123.7182617,-15.01464844,41.74804688
434718,0.396728516,0.425170898,0.759277344,-122.5585938,-18.24951172,39.24560547
434745,0.392456055,0.374755859,0.796264648,-114.5629883,-18.18847656,37.04833984
434771,0.432250977,0.307861328,0.772949219,-108.8867188,-18.18847656,33.63037109
434797,0.447509766,0.244750977,0.772583008,-102.9052734,-17.15087891,31.43310547
434823,0.44543457,0.180541992,0.832275391,-90.51513672,-12.93945313,29.54101563
434849,0.439575195,0.147949219,0.857299805,-81.17675781,-12.39013672,26.42822266
434876,0.444702148,0.143066406,0.83215332,-78.55224609,-11.47460938,24.29199219
434902,0.437011719,0.103393555,0.826171875,-80.87158203,-14.40429688,22.94921875
434928,0.437988281,0.026611328,0.863891602,-82.82470703,-17.45605469,21.36230469
434954,0.446655273,0.006958008,0.856445313,-79.40673828,-18.67675781,21.42333984
434980,0.45715332,-0.036743164,0.833862305,-74.64599609,-19.22607422,21.42333984
435007,0.473144531,-0.081420898,0.810424805,-71.83837891,-20.87402344,21.66748047
435033,0.47253418,-0.117797852,0.834472656,-68.42041016,-19.83642578,21.78955078
435059,0.485595703,-0.180786133,0.819946289,-58.89892578,-19.04296875,21.66748047
435085,0.506225586,-0.206176758,0.776855469,-52.00195313,-18.49365234,20.14160156
435111,0.501708984,-0.234130859,0.771484375,-49.13330078,-18.18847656,18.79882813
435138,0.490356445,-0.237915039,0.795776367,-49.25537109,-18.37158203,18.00537109
435164,0.493652344,-0.271240234,0.762084961,-53.7109375,-20.93505859,16.23535156
435190,0.502319336,-0.314086914,0.706542969,-57.25097656,-22.03369141,15.50292969
435216,0.514892578,-0.365722656,0.707275391,-56.82373047,-20.62988281,16.17431641
435242,0.511108398,-0.372924805,0.716918945,-49.8046875,-19.47021484,13.30566406
435268,0.503540039,-0.384155273,0.70703125,-42.17529297,-14.03808594,12.93945313
435295,0.511230469,-0.389526367,0.684082031,-42.66357422,-14.46533203,12.63427734
435321,0.509033203,-0.433837891,0.665649414,-44.98291016,-13.54980469,13.06152344
435347,0.522094727,-0.493896484,0.662353516,-37.109375,-9.887695313,12.08496094
435373,0.514770508,-0.501342773,0.656005859,-29.84619141,-6.958007813,10.80322266
435400,0.500244141,-0.501342773,0.664672852,-29.66308594,-8.972167969,7.690429688
435426,0.514770508,-0.5390625,0.655761719,-32.59277344,-10.13183594,4.39453125
435452,0.517333984,-0.554321289,0.654296875,-29.35791016,-9.094238281,2.258300781
435478,0.53894043,-0.569702148,0.625976563,-22.58300781,-7.995605469,-0.427246094
435504,0.513427734,-0.534179688,0.653198242,-18.61572266,-6.8359375,-1.281738281
435530,0.520874023,-0.555419922,0.651245117,-15.86914063,-5.737304688,-1.281738281
435557,0.53137207,-0.559448242,0.624755859,-9.399414063,-5.249023438,-2.746582031
435583,0.530273438,-0.564331055,0.606567383,-5.37109375,-3.845214844,-3.845214844
435609,0.521118164,-0.543212891,0.619873047,-5.004882813,-3.784179688,-4.516601563
435635,0.533447266,-0.567626953,0.620239258,-2.44140625,-4.760742188,-3.967285156
435661,0.505126953,-0.512817383,0.647583008,3.784179688,-4.272460938,-1.708984375
435688,0.503295898,-0.511108398,0.642211914,0.610351563,-4.577636719,0.48828125
435714,0.514526367,-0.547241211,0.660888672,-0.915527344,-6.591796875,2.014160156
435740,0.532592773,-0.563354492,0.65246582,-0.244140625,-10.98632813,2.746582031
435766,0.529174805,-0.578125,0.658935547,-0.061035156,-11.84082031,2.136230469
435792,0.539550781,-0.595092773,0.651733398,-0.854492188,-11.96289063,1.037597656
435819,0.544433594,-0.621459961,0.645874023,-7.141113281,-14.09912109,-1.647949219
435845,0.557006836,-0.639160156,0.619628906,-5.065917969,-11.41357422,-5.065917969
435871,0.553100586,-0.630371094,0.622680664,-1.647949219,-8.911132813,-7.32421875
435897,0.541748047,-0.588378906,0.620605469,0.854492188,-7.202148438,-9.826660156
435924,0.535644531,-0.549316406,0.627807617,-0.366210938,-8.178710938,-9.887695313
435950,0.531982422,-0.530517578,0.618774414,-0.244140625,-7.080078125,-8.666992188
435976,0.51953125,-0.511352539,0.634643555,1.281738281,-6.103515625,-5.676269531
436002,0.515136719,-0.517211914,0.632568359,-0.793457031,-6.8359375,-3.295898438
436028,0.530761719,-0.55090332,0.629760742,-2.624511719,-8.117675781,-1.892089844
436055,0.547973633,-0.59777832,0.614013672,-3.90625,-8.178710938,-2.380371094
436081,0.562866211,-0.625366211,0.605957031,-2.075195313,-7.202148438,-5.554199219
436107,0.559448242,-0.614013672,0.596801758,1.098632813,-6.164550781,-7.263183594
436133,0.579223633,-0.562133789,0.57409668,5.249023438,-5.004882813,-7.263183594
436159,0.537109375,-0.516601563,0.604003906,11.90185547,2.197265625,-5.065917969
436186,0.529541016,-0.496948242,0.60925293,11.16943359,2.563476563,-2.197265625
436212,0.52355957,-0.540771484,0.642456055,-3.112792969,-4.211425781,-1.892089844
436238,0.544677734,-0.600463867,0.619750977,-12.08496094,-6.34765625,-3.41796875
436264,0.5625,-0.661376953,0.612548828,1.098632813,-3.295898438,-6.103515625
436290,0.551269531,-0.618164063,0.635498047,9.27734375,-0.793457031,-8.239746094
436317,0.538208008,-0.608154297,0.630493164,17.45605469,2.502441406,-12.08496094
436343,0.516479492,-0.591552734,0.580810547,23.68164063,3.173828125,-15.50292969
436369,0.530273438,-0.595581055,0.584594727,30.94482422,6.530761719,-17.70019531
436395,0.500488281,-0.560302734,0.603027344,45.95947266,13.36669922,-21.30126953
436421,0.510131836,-0.532836914,0.615234375,58.47167969,16.78466797,-23.80371094
436448,0.500244141,-0.50390625,0.612915039,66.83349609,19.65332031,-25.63476563
436474,0.451049805,-0.385742188,0.650024414,79.58984375,20.56884766,-20.38574219
436500,0.553466797,-0.527832031,0.645629883,120.7275391,37.04833984,-35.88867188
436526,0.491210938,-0.32409668,0.677978516,137.8173828,38.69628906,-28.25927734
436552,0.416137695,-0.189697266,0.771484375,130.3100586,40.64941406,-35.94970703
436579,0.455932617,-0.196411133,0.787841797,115.2954102,33.99658203,-36.1328125
436605,0.453979492,-0.153198242,0.82434082,113.28125,32.34863281,-34.72900391
436631,0.393188477,-0.061035156,0.862182617,109.8022461,33.38623047,-38.33007813
436657,0.395141602,-0.01184082,0.845336914,101.6845703,27.89306641,-39.55078125
436683,0.373291016,0.048950195,0.874755859,98.57177734,24.47509766,-40.58837891
436710,0.35168457,0.100830078,0.873046875,101.7456055,22.03369141,-38.87939453
436736,0.326904297,0.18762207,0.862792969,101.1352539,15.56396484,-38.39111328
436762,0.327880859,0.228759766,0.856323242,98.02246094,12.02392578,-38.94042969
436788,0.329223633,0.263671875,0.806518555,102.2949219,9.948730469,-37.17041016
436815,0.290405273,0.334594727,0.805541992,111.9995117,8.605957031,-35.15625
436841,0.268920898,0.401245117,0.790039063,116.5771484,3.295898438,-33.56933594
436867,0.297119141,0.458251953,0.725463867,117.3095703,0.183105469,-31.18896484
436893,0.278564453,0.508178711,0.725219727,115.4174805,-0.305175781,-32.59277344
436919,0.253540039,0.522094727,0.721435547,107.9101563,-2.807617188,-35.27832031
436946,0.253417969,0.603027344,0.711181641,102.6000977,-8.605957031,-35.03417969
436972,0.243896484,0.644042969,0.69519043,92.16308594,-15.93017578,-37.04833984
436998,0.233154297,0.697875977,0.664428711,96.98486328,-18.31054688,-37.109375
437024,0.22253418,0.745239258,0.653076172,101.1962891,-19.53125,-38.81835938
437050,0.2109375,0.821777344,0.562255859,100.2197266,-25.51269531,-36.25488281
437077,0.170776367,0.883666992,0.539672852,88.8671875,-34.05761719,-34.60693359
437103,0.180175781,0.895751953,0.512084961,85.02197266,-38.94042969,-33.26416016
437129,0.200317383,0.9375,0.477050781,85.38818359,-40.28320313,-29.78515625
437155,0.214355469,1.002075195,0.406616211,83.31298828,-41.25976563,-25.26855469
437181,0.210083008,1.010620117,0.398193359,78.18603516,-40.77148438,-23.31542969
437208,0.24206543,1.045898438,0.377319336,70.86181641,-39.42871094,-20.87402344
437234,0.260253906,1.048095703,0.276733398,53.89404297,-52.49023438,-14.09912109
437260,0.237304688,1.0546875,0.305664063,54.19921875,-44.61669922,-13.36669922
437286,0.279052734,1.103881836,0.281005859,57.37304688,-31.92138672,-16.90673828
437313,0.285888672,1.127929688,0.307739258,47.8515625,-28.68652344,-14.89257813
437339,0.26171875,1.140380859,0.29699707,44.49462891,-24.90234375,-10.55908203
437365,0.292114258,1.119384766,0.211547852,30.57861328,-33.63037109,-4.516601563
437391,0.291870117,1.129150391,0.223022461,14.58740234,-32.28759766,-2.136230469
437417,0.300537109,1.068603516,0.235473633,8.056640625,-26.42822266,-5.432128906
437444,0.296142578,1.036987305,0.202026367,3.601074219,-26.3671875,-3.234863281
437470,0.342651367,1.059936523,0.1640625,1.586914063,-22.70507813,-0.305175781
437496,0.426391602,1.124389648,0.182495117,-11.29150391,-14.40429688,-3.112792969
437522,0.416992188,1.059448242,0.314697266,-21.24023438,-5.004882813,-5.065917969
437548,0.246459961,0.947753906,0.224975586,-6.652832031,0.915527344,4.028320313
437574,0.267822266,0.974487305,0.120239258,-4.638671875,-2.624511719,8.056640625
437601,0.283569336,0.997070313,0.142456055,-8.361816406,-5.859375,9.399414063
437627,0.268432617,0.978393555,0.24597168,-16.54052734,-7.995605469,8.544921875
437653,0.264770508,0.915283203,0.244384766,-15.38085938,-6.408691406,6.042480469
437679,0.263305664,0.89440918,0.231079102,-8.605957031,-2.502441406,4.39453125
437705,0.271362305,0.943481445,0.231201172,2.319335938,0.244140625,2.197265625
437731,0.279418945,0.975097656,0.254272461,2.807617188,-1.159667969,0.671386719
437758,0.282836914,0.964599609,0.250366211,0.610351563,-3.540039063,0.061035156
437784,0.28894043,0.94140625,0.236572266,-1.770019531,-6.103515625,-0.549316406
437810,0.286254883,0.947753906,0.241210938,-2.868652344,-7.446289063,-0.9765625
437836,0.289916992,0.938232422,0.23815918,-3.784179688,-8.117675781,-1.647949219
437862,0.299682617,0.932128906,0.224853516,-2.9296875,-8.361816406,-2.624511719
437889,0.291137695,0.933349609,0.236938477,0.793457031,-6.591796875,-3.784179688
437915,0.296020508,0.937744141,0.236083984,1.953125,-5.920410156,-4.455566406
437941,0.298950195,0.946899414,0.224365234,1.220703125,-6.103515625,-5.187988281
437967,0.294433594,0.957763672,0.216552734,1.037597656,-5.798339844,-5.554199219
437993,0.292236328,0.957397461,0.2265625,1.281738281,-4.821777344,-5.249023438
438020,0.29309082,0.956176758,0.228393555,1.403808594,-3.234863281,-4.333496094
438046,0.291259766,0.964233398,0.214111328,0.732421875,-2.136230469,-3.540039063
438072,0.289672852,0.961425781,0.214233398,-0.305175781,-1.831054688,-3.356933594
438098,0.286376953,0.962646484,0.226196289,-2.380371094,-2.136230469,-3.112792969
438124,0.282104492,0.963378906,0.235473633,-4.821777344,-1.953125,-2.868652344
438151,0.283569336,0.951904297,0.238525391,-3.662109375,-1.220703125,-2.9296875
438177,0.278076172,0.954345703,0.252929688,-0.915527344,0.366210938,-2.9296875
438203,0.272705078,0.971557617,0.254150391,1.708984375,1.342773438,-2.685546875
438229,0.269287109,0.976318359,0.25378418,0.427246094,0.244140625,-1.892089844
438256,0.2734375,0.969238281,0.258911133,-1.46484375,-1.220703125,-1.037597656
438282,0.287109375,0.972290039,0.265014648,-3.173828125,-2.258300781,-0.366210938
438308,0.291748047,0.972290039,0.27746582,-2.075195313,-1.342773438,1.098632813
438334,0.304931641,0.991455078,0.282958984,-0.793457031,-0.915527344,2.563476563
438361,0.305541992,1.017578125,0.282470703,-0.671386719,-1.586914063,5.615234375
438387,0.308105469,1.004516602,0.261108398,-3.845214844,-4.821777344,9.582519531
438413,0.3125,0.99230957,0.232055664,-4.39453125,-7.141113281,11.90185547
438439,0.3203125,0.993041992,0.233886719,-3.479003906,-5.737304688,14.09912109
438465,0.34777832,0.995483398,0.247558594,-10.80322266,-5.187988281,18.12744141
438492,0.365722656,0.976928711,0.286621094,-16.78466797,-3.90625,20.5078125
438518,0.393798828,0.972045898,0.315307617,-21.60644531,-1.220703125,21.78955078
438545,0.391113281,1.019897461,0.363525391,-28.13720703,2.563476563,22.76611328
438571,0.41027832,1.02355957,0.406616211,-34.66796875,3.90625,25.02441406
438597,0.424682617,0.998413086,0.435302734,-42.96875,6.042480469,27.09960938
438623,0.43347168,0.967163086,0.414672852,-48.52294922,8.972167969,29.84619141
438649,0.41809082,1.006225586,0.407958984,-52.91748047,11.10839844,33.81347656
438675,0.406738281,0.98034668,0.449462891,-59.93652344,9.460449219,37.04833984
438701,0.417114258,0.896484375,0.461181641,-70.3125,5.187988281,41.38183594
438728,0.435913086,0.866088867,0.444580078,-77.20947266,4.638671875,43.88427734
438754,0.436401367,0.839111328,0.485961914,-79.16259766,6.164550781,45.28808594
438780,0.434936523,0.782226563,0.568359375,-80.56640625,5.920410156,48.95019531
438806,0.456542969,0.688720703,0.598144531,-87.52441406,1.037597656,50.17089844
438832,0.463134766,0.690063477,0.606201172,-91.00341797,-0.732421875,49.31640625
438859,0.434936523,0.671142578,0.621459961,-103.2714844,-12.57324219,54.93164063
438885,0.498901367,0.535888672,0.651611328,-108.581543,-15.50292969,52.12402344
438911,0.500366211,0.462280273,0.670898438,-106.5673828,-17.15087891,55.35888672
438937,0.518432617,0.426147461,0.670532227,-102.6000977,-18.43261719,53.46679688
438964,0.527587891,0.362670898,0.655517578,-97.41210938,-18.43261719,51.45263672
438990,0.556030273,0.270629883,0.672485352,-91.73583984,-17.39501953,51.14746094
439016,0.569946289,0.205200195,0.681762695,-74.76806641,-12.63427734,50.04882813
439042,0.552734375,0.200561523,0.67980957,-62.31689453,-7.8125,45.83740234
439068,0.559082031,0.158203125,0.705566406,-61.5234375,-7.690429688,43.39599609
439094,0.539672852,0.138671875,0.737915039,-60.91308594,-9.765625,40.46630859
439121,0.576293945,0.060180664,0.720214844,-63.84277344,-12.32910156,39.42871094
439147,0.572143555,0.029052734,0.731933594,-59.32617188,-11.29150391,37.65869141
439173,0.594604492,-0.024536133,0.74621582,-58.95996094,-13.61083984,35.64453125
439200,0.588867188,-0.042724609,0.762573242,-60.97412109,-14.83154297,33.14208984
439226,0.598876953,-0.08215332,0.739990234,-58.41064453,-14.46533203,32.71484375
439252,0.629394531,-0.182983398,0.753540039,-52.97851563,-12.26806641,31.92138672
439278,0.626586914,-0.165771484,0.744384766,-39.55078125,-7.629394531,29.296875
439305,0.61340332,-0.18359375,0.738037109,-36.25488281,-6.34765625,27.77099609
439331,0.614135742,-0.207275391,0.729370117,-35.40039063,-6.469726563,26.00097656
439357,0.611328125,-0.234130859,0.712280273,-30.57861328,-5.065917969,23.37646484
439383,0.591186523,-0.218505859,0.726928711,-25.08544922,-0.732421875,22.27783203
439409,0.588012695,-0.22644043,0.741088867,-26.61132813,-0.854492188,22.4609375
439436,0.611206055,-0.280761719,0.716552734,-30.09033203,-2.746582031,22.82714844
439462,0.622070313,-0.305175781,0.696166992,-30.15136719,-3.967285156,21.42333984
439488,0.628173828,-0.31628418,0.68371582,-30.70068359,-6.469726563,17.578125
439514,0.626586914,-0.353271484,0.688232422,-28.44238281,-3.112792969,16.96777344
439540,0.610351563,-0.368286133,0.708374023,-25.69580078,-2.258300781,15.74707031
439566,0.610107422,-0.378540039,0.699951172,-25.02441406,-3.295898438,15.38085938
439592,0.592163086,-0.395629883,0.679931641,-24.23095703,-4.028320313,13.42773438
439619,0.578369141,-0.432983398,0.670410156,-20.5078125,-2.9296875,10.25390625
439645,0.565795898,-0.434082031,0.665771484,-17.02880859,-4.089355469,8.850097656
439671,0.54284668,-0.432128906,0.669555664,-14.6484375,-5.004882813,5.920410156
439697,0.55847168,-0.432983398,0.684326172,-15.80810547,-8.850097656,3.540039063
439723,0.567749023,-0.446899414,0.681640625,-15.44189453,-10.00976563,2.014160156
439750,0.590942383,-0.435058594,0.668579102,-14.70947266,-9.155273438,0.061035156
439776,0.596801758,-0.450927734,0.660766602,-13.85498047,-7.568359375,0.427246094
439802,0.585205078,-0.448120117,0.678955078,-14.83154297,-7.019042969,0.732421875
439828,0.600341797,-0.474365234,0.690185547,-14.6484375,-6.713867188,0.793457031
439854,0.598754883,-0.478881836,0.668334961,-13.12255859,-6.225585938,-0.366210938
439881,0.598754883,-0.487426758,0.657958984,-13.12255859,-6.225585938,-0.9765625
439907,0.568847656,-0.483276367,0.688110352,-15.38085938,-8.850097656,-0.48828125
439933,0.577026367,-0.501708984,0.64074707,-9.033203125,-8.178710938,-1.708984375
439959,0.579467773,-0.470581055,0.636962891,-5.554199219,-8.056640625,-1.953125
439985,0.576660156,-0.495117188,0.64074707,-5.798339844,-9.094238281,-2.380371094
440012,0.584838867,-0.501586914,0.614379883,-4.821777344,-9.155273438,-3.112792969
440038,0.588989258,-0.492919922,0.621948242,-2.136230469,-7.202148438,-2.807617188
440064,0.599365234,-0.486450195,0.636962891,-1.953125,-7.568359375,-2.380371094
440090,0.58984375,-0.485107422,0.645141602,-3.723144531,-7.080078125,-1.953125
440117,0.590698242,-0.482666016,0.632202148,-2.624511719,-7.995605469,-2.075195313
440143,0.597167969,-0.474609375,0.644287109,-1.037597656,-8.239746094,-1.525878906
440169,0.595092773,-0.458374023,0.652832031,0.122070313,-9.094238281,-0.305175781
440195,0.594238281,-0.48046875,0.643554688,-2.136230469,-11.04736328,0.427246094
440221,0.589355469,-0.502929688,0.614624023,-1.098632813,-10.7421875,0.244140625
440248,0.571411133,-0.510864258,0.597167969,0.793457031,-10.80322266,-0.549316406
440274,0.561523438,-0.520751953,0.568847656,3.601074219,-8.544921875,-3.41796875
440300,0.565185547,-0.538085938,0.560180664,5.554199219,-5.859375,-5.859375
440326,0.572631836,-0.547973633,0.561035156,10.31494141,-0.48828125,-9.643554688
440352,0.576416016,-0.570922852,0.580810547,13.00048828,2.807617188,-14.70947266
440379,0.585205078,-0.590698242,0.586669922,16.66259766,5.920410156,-21.78955078
440405,0.60168457,-0.593261719,0.60546875,29.47998047,12.75634766,-26.06201172
440431,0.574462891,-0.556640625,0.628295898,45.77636719,16.23535156,-30.2734375
440457,0.577026367,-0.530883789,0.639404297,61.76757813,20.38574219,-35.09521484
440483,0.594116211,-0.468994141,0.647338867,76.72119141,23.62060547,-35.82763672
440510,0.588745117,-0.397094727,0.696044922,99.54833984,30.45654297,-33.93554688
440536,0.567993164,-0.271728516,0.707519531,111.1450195,37.90283203,-21.24023438
440562,0.497802734,-0.182739258,0.723022461,127.0141602,28.01513672,-48.46191406
440588,0.528442383,-0.157714844,0.735229492,123.1079102,22.88818359,-42.35839844
440615,0.465820313,-0.088500977,0.761352539,128.4179688,22.39990234,-44.00634766
440641,0.475830078,-0.034423828,0.738769531,131.2866211,19.77539063,-43.02978516
440667,0.489135742,0.054199219,0.725952148,124.8168945,18.85986328,-42.54150391
440693,0.447998047,0.133056641,0.755859375,117.6147461,17.27294922,-44.06738281
440719,0.456054688,0.183959961,0.778076172,120.1171875,17.94433594,-44.25048828
440745,0.475830078,0.262695313,0.733764648,125,21.11816406,-44.12841797
440772,0.399291992,0.357910156,0.736572266,125.7324219,16.96777344,-43.09082031
440798,0.395874023,0.379150391,0.752807617,124.4506836,11.35253906,-42.11425781
440824,0.371948242,0.509399414,0.760498047,120.4833984,11.29150391,-42.78564453
440850,0.383544922,0.530639648,0.732910156,90.51513672,-21.72851563,-33.99658203
440876,0.380249023,0.682739258,0.747558594,93.75,-28.01513672,-31.00585938
440903,0.403198242,0.645629883,0.746948242,91.43066406,-38.02490234,-16.66259766
440929,0.435546875,0.634765625,0.699707031,95.21484375,-33.32519531,-22.58300781
440955,0.401000977,0.723876953,0.680908203,90.39306641,-38.51318359,-15.13671875
440981,0.485961914,0.748535156,0.610595703,78.55224609,-46.81396484,-12.14599609
441008,0.479858398,0.790527344,0.654541016,68.29833984,-46.44775391,-16.35742188
441034,0.462646484,0.776611328,0.657348633,70.55664063,-44.921875,-15.99121094
441060,0.510498047,0.799194336,0.531005859,71.47216797,-44.25048828,-14.52636719
441086,0.524291992,0.893554688,0.501098633,70.12939453,-37.04833984,-16.66259766
441112,0.503417969,0.901123047,0.469482422,55.84716797,-32.59277344,-19.89746094
441139,0.508178711,0.857666016,0.446044922,46.44775391,-29.90722656,-21.72851563
441165,0.504272461,0.85925293,0.379638672,34.97314453,-24.71923828,-25.08544922
441191,0.560791016,0.917724609,0.379150391,26.61132813,-18.67675781,-26.85546875
441217,0.548583984,0.904296875,0.394165039,22.70507813,-10.07080078,-29.90722656
441243,0.417724609,0.819335938,0.377075195,18.61572266,0.610351563,-29.66308594
441270,0.351806641,0.922363281,0.298828125,11.77978516,-0.366210938,-39.73388672
441296,0.340087891,0.924438477,0.312011719,-7.263183594,-12.14599609,-38.87939453
441322,0.388305664,0.847412109,0.385498047,-16.72363281,-23.98681641,-34.30175781
441348,0.415283203,0.831420898,0.42590332,-3.784179688,-26.42822266,-30.82275391
441374,0.436767578,0.874755859,0.41027832,2.258300781,-23.92578125,-31.18896484
441401,0.399414063,0.994262695,0.395874023,-0.305175781,-24.10888672,-30.45654297
441427,0.375610352,0.985351563,0.329467773,3.845214844,-23.25439453,-27.40478516
441453,0.352661133,0.971557617,0.335449219,11.41357422,-19.95849609,-23.86474609
441479,0.345947266,0.983764648,0.298095703,14.6484375,-16.11328125,-17.88330078
441506,0.350952148,1.008300781,0.223266602,6.469726563,-13.97705078,-11.53564453
441532,0.351074219,0.989013672,0.215576172,0.732421875,-12.93945313,-7.385253906
441558,0.355224609,0.949584961,0.287841797,-2.9296875,-9.643554688,-5.920410156
441584,0.352539063,0.912231445,0.310058594,-0.183105469,-5.004882813,-3.112792969
441610,0.358642578,0.936279297,0.294189453,5.859375,-0.610351563,-1.342773438
441637,0.357910156,0.948608398,0.300537109,4.516601563,-1.281738281,-0.671386719
441663,0.356933594,0.916381836,0.336181641,-1.953125,-4.028320313,-0.244140625
441689,0.34777832,0.912475586,0.342529297,-2.746582031,-3.967285156,0
441715,0.346435547,0.897949219,0.325683594,-1.403808594,-3.540039063,0.183105469
441741,0.345581055,0.907470703,0.319213867,-0.549316406,-2.868652344,0.122070313
441768,0.347412109,0.895751953,0.329223633,-3.784179688,-3.540039063,-1.037597656
441794,0.346801758,0.881835938,0.336791992,-3.90625,-2.990722656,-1.647949219
441820,0.349975586,0.887573242,0.330200195,-0.549316406,-1.037597656,-2.258300781
441846,0.35144043,0.901123047,0.318847656,0.9765625,-0.305175781,-2.624511719
441873,0.355102539,0.906860352,0.326660156,-0.366210938,-1.159667969,-2.807617188
441899,0.352050781,0.89453125,0.358398438,-3.540039063,-2.502441406,-3.112792969
441925,0.357299805,0.893432617,0.354003906,-2.685546875,-1.953125,-3.784179688
441951,0.337524414,0.908569336,0.336425781,-0.793457031,-1.525878906,-3.540039063
441977,0.325439453,0.920654297,0.360473633,-3.601074219,-3.723144531,-3.051757813
447016,-0.05859375,0.869750977,0.499145508,1.831054688,-5.37109375,-3.295898438
447042,-0.06237793,0.876708984,0.498779297,1.770019531,-5.37109375,-3.479003906
447068,-0.060913086,0.878173828,0.495361328,1.098632813,-5.859375,-3.234863281
447095,-0.058227539,0.877075195,0.492919922,0.305175781,-5.004882813,-3.112792969
447121,-0.062744141,0.877075195,0.509399414,0.732421875,-4.272460938,-3.173828125
447147,-0.067382813,0.869018555,0.50793457,0.9765625,-4.943847656,-2.990722656
447173,-0.064575195,0.874023438,0.497680664,1.403808594,-5.737304688,-2.9296875
447199,-0.065185547,0.878540039,0.506347656,1.342773438,-5.737304688,-3.234863281
447226,-0.065917969,0.872680664,0.502685547,1.953125,-5.432128906,-3.051757813
447252,-0.065185547,0.883789063,0.500366211,1.708984375,-6.103515625,-2.624511719
447278,-0.064086914,0.877197266,0.500854492,1.220703125,-6.164550781,-2.319335938
447304,-0.061523438,0.871826172,0.502441406,1.586914063,-5.737304688,-2.075195313
447330,-0.060546875,0.874633789,0.504272461,1.46484375,-5.737304688,-2.075195313
447357,-0.059692383,0.872192383,0.494384766,1.098632813,-6.164550781,-2.258300781
447383,-0.061035156,0.871704102,0.500732422,1.220703125,-5.615234375,-2.624511719
447409,-0.061157227,0.875366211,0.501708984,1.647949219,-5.126953125,-2.685546875
447435,-0.063842773,0.885253906,0.497558594,0.915527344,-5.310058594,-2.624511719
447462,-0.070556641,0.910766602,0.521362305,0.549316406,-5.249023438,-2.075195313
447488,-0.064941406,0.963256836,0.52331543,-0.427246094,-5.920410156,0.9765625
447514,-0.044555664,0.982177734,0.545776367,-5.493164063,-6.774902344,5.798339844
447540,-0.041503906,0.993652344,0.585571289,-9.399414063,-7.568359375,10.07080078
447566,-0.051269531,1.003295898,0.588012695,-16.6015625,-10.80322266,16.66259766
447593,-0.002441406,0.975341797,0.611328125,-24.16992188,-14.34326172,21.42333984
447619,-0.00402832,0.966064453,0.614501953,-28.01513672,-15.56396484,23.86474609
447645,0.02331543,0.966552734,0.617553711,-34.60693359,-17.76123047,25.81787109
447671,0.079833984,0.920288086,0.646362305,-51.02539063,-22.82714844,28.56445313
447697,0.095458984,0.887939453,0.653442383,-56.70166016,-25.02441406,29.54101563
447723,0.111206055,0.876831055,0.679443359,-59.81445313,-26.55029297,32.77587891
447750,0.14050293,0.857055664,0.679077148,-56.39648438,-28.25927734,36.86523438
447776,0.146484375,0.830688477,0.691162109,-51.02539063,-26.67236328,40.89355469
447802,0.161621094,0.825561523,0.704345703,-43.70117188,-25.02441406,47.54638672
447829,0.157958984,0.798461914,0.707275391,-43.76220703,-23.80371094,51.51367188
447855,0.169555664,0.782958984,0.696411133,-46.38671875,-22.70507813,54.19921875
447881,0.162963867,0.785644531,0.745605469,-55.72509766,-23.98681641,57.67822266
447907,0.174316406,0.733764648,0.76184082,-70.49560547,-30.63964844,59.69238281
447933,0.202636719,0.678222656,0.736938477,-78.67431641,-37.29248047,59.75341797
447959,0.228515625,0.622314453,0.746948242,-83.06884766,-39.30664063,60.66894531
447986,0.262939453,0.540161133,0.770996094,-86.24267578,-39.85595703,61.64550781
448012,0.27746582,0.496582031,0.789306641,-85.87646484,-39.85595703,61.09619141
448038,0.317138672,0.42175293,0.799316406,-86.30371094,-40.40527344,60.79101563
448064,0.288208008,0.392822266,0.866088867,-89.53857422,-41.07666016,58.10546875
448091,0.351806641,0.304199219,0.819946289,-95.88623047,-48.21777344,56.88476563
448117,0.405761719,0.223510742,0.802978516,-93.75,-48.46191406,54.62646484
448143,0.44152832,0.150268555,0.803100586,-86.36474609,-47.11914063,53.89404297
448169,0.455322266,0.076049805,0.813598633,-81.48193359,-46.75292969,52.79541016
448195,0.494140625,0.022705078,0.80859375,-76.11083984,-44.43359375,50.65917969
448222,0.524047852,-0.042724609,0.76940918,-65.24658203,-38.14697266,48.03466797
448248,0.521484375,-0.048339844,0.770019531,-57.06787109,-33.26416016,44.31152344
448274,0.540649414,-0.083984375,0.762817383,-54.44335938,-30.94482422,42.96875
448300,0.538208008,-0.118164063,0.759765625,-50.23193359,-27.95410156,40.0390625
448326,0.553833008,-0.149536133,0.724731445,-48.15673828,-24.84130859,37.04833984
448352,0.555908203,-0.170532227,0.715820313,-47.30224609,-23.25439453,35.09521484
448379,0.548339844,-0.207275391,0.718017578,-47.42431641,-21.24023438,32.65380859
448405,0.541870117,-0.241455078,0.695800781,-47.11914063,-19.89746094,30.63964844
448431,0.564819336,-0.257080078,0.673095703,-47.72949219,-17.76123047,29.96826172
448457,0.566650391,-0.307006836,0.692260742,-46.99707031,-14.09912109,28.50341797
448483,0.569580078,-0.305786133,0.700195313,-46.81396484,-14.22119141,25.26855469
448510,0.586547852,-0.344848633,0.684692383,-47.18017578,-14.03808594,23.13232422
448536,0.591552734,-0.400756836,0.677734375,-43.21289063,-11.23046875,19.34814453
448562,0.626464844,-0.414794922,0.661254883,-38.20800781,-10.31494141,17.82226563
448588,0.622192383,-0.423706055,0.672119141,-34.97314453,-8.056640625,16.6015625
448615,0.596313477,-0.436035156,0.660644531,-31.25,-4.8828125,14.16015625
448641,0.589355469,-0.458374023,0.655395508,-33.203125,-5.493164063,11.47460938
448667,0.587646484,-0.478759766,0.631835938,-32.47070313,-5.126953125,9.338378906
448693,0.578369141,-0.501464844,0.627075195,-29.96826172,-2.9296875,7.995605469
448719,0.561889648,-0.512817383,0.609619141,-24.71923828,-0.854492188,5.920410156
448746,0.551757813,-0.507568359,0.608276367,-23.25439453,-1.831054688,3.540039063
448772,0.556518555,-0.525390625,0.606933594,-21.97265625,-1.220703125,2.014160156
448798,0.553588867,-0.521728516,0.625732422,-20.5078125,-0.671386719,0.244140625
448824,0.556396484,-0.541992188,0.619018555,-21.05712891,-0.915527344,-1.098632813
448850,0.564819336,-0.540161133,0.607666016,-20.93505859,-2.075195313,-1.098632813
448877,0.576660156,-0.55847168,0.625976563,-19.34814453,-1.770019531,-0.549316406
448903,0.581054688,-0.544067383,0.598876953,-14.22119141,-0.427246094,0
448929,0.577026367,-0.559204102,0.593139648,-12.6953125,0.366210938,0.305175781
448955,0.554077148,-0.540527344,0.602050781,-9.826660156,0.732421875,0.732421875
448981,0.572265625,-0.565307617,0.568359375,-10.43701172,0.793457031,0.244140625
449008,0.551635742,-0.567626953,0.587890625,-8.178710938,2.44140625,0.183105469
449034,0.529052734,-0.571655273,0.591674805,-5.737304688,2.014160156,0.671386719
449060,0.540039063,-0.587646484,0.580566406,-2.9296875,0.732421875,0.48828125
449086,0.536254883,-0.588867188,0.597167969,-1.098632813,0.061035156,0.305175781
449113,0.526245117,-0.577758789,0.609130859,-1.403808594,-1.098632813,-0.427246094
449139,0.552368164,-0.597167969,0.598022461,-1.342773438,-4.272460938,-0.854492188
449165,0.549560547,-0.608886719,0.605102539,0.48828125,-3.540039063,-1.46484375
449191,0.545043945,-0.587280273,0.617919922,1.46484375,-4.516601563,-1.46484375
449217,0.545776367,-0.587402344,0.623657227,1.647949219,-5.310058594,-1.46484375
449244,0.537841797,-0.581420898,0.619628906,1.525878906,-5.981445313,-1.586914063
449270,0.541503906,-0.589477539,0.593994141,1.037597656,-7.446289063,-1.403808594
449296,0.5390625,-0.5859375,0.613891602,1.403808594,-7.507324219,-0.793457031
449322,0.53125,-0.583129883,0.614013672,1.708984375,-6.103515625,-1.037597656
449349,0.535766602,-0.604492188,0.594848633,1.586914063,-5.981445313,-1.46484375
449375,0.534912109,-0.59765625,0.608520508,1.098632813,-6.8359375,-1.708984375
449401,0.534301758,-0.592407227,0.619750977,1.281738281,-5.920410156,-2.685546875
449427,0.538452148,-0.597412109,0.60949707,1.831054688,-5.554199219,-3.601074219
449453,0.53112793,-0.581420898,0.611450195,2.136230469,-5.615234375,-3.662109375
449480,0.535644531,-0.579956055,0.620605469,0.366210938,-6.103515625,-3.173828125
449506,0.531738281,-0.579956055,0.62097168,0.305175781,-6.591796875,-2.9296875
449532,0.525878906,-0.580078125,0.630737305,0.793457031,-6.164550781,-2.502441406
449558,0.532592773,-0.586425781,0.616699219,1.037597656,-6.530761719,-1.892089844
449584,0.529663086,-0.58203125,0.609130859,0.732421875,-6.225585938,-2.197265625
449611,0.537597656,-0.597900391,0.604248047,0.854492188,-6.958007813,-2.258300781
449637,0.527954102,-0.587768555,0.615844727,2.502441406,-6.225585938,-2.807617188
449663,0.526123047,-0.590942383,0.608642578,2.685546875,-5.676269531,-3.234863281
449689,0.527587891,-0.598022461,0.592041016,2.014160156,-5.493164063,-3.967285156
449716,0.525878906,-0.609130859,0.594848633,2.9296875,-5.798339844,-5.432128906
449742,0.524780273,-0.601196289,0.593505859,4.699707031,-5.798339844,-7.568359375
449768,0.525878906,-0.605957031,0.579101563,7.507324219,-4.943847656,-9.704589844
449794,0.53515625,-0.610839844,0.563720703,11.77978516,-2.136230469,-12.6953125
449820,0.504150391,-0.605834961,0.576293945,23.86474609,0.366210938,-14.58740234
449847,0.515136719,-0.626220703,0.558837891,39.67285156,6.713867188,-17.02880859
449873,0.530517578,-0.581787109,0.499023438,59.63134766,9.094238281,-14.28222656
449899,0.56237793,-0.651733398,0.489379883,97.10693359,24.71923828,-22.88818359
449925,0.486450195,-0.507568359,0.617675781,122.9858398,35.27832031,-26.48925781
449952,0.469726563,-0.369262695,0.744873047,120.300293,34.11865234,-26.12304688
449978,0.475219727,-0.314331055,0.778930664,101.6845703,28.86962891,-29.60205078
450004,0.53503418,-0.299926758,0.780883789,90.69824219,26.30615234,-30.82275391
450030,0.506835938,-0.243774414,0.83190918,82.15332031,23.62060547,-31.25
450056,0.462768555,-0.156982422,0.897827148,79.46777344,21.85058594,-30.63964844
450082,0.450805664,-0.117919922,0.891357422,72.265625,18.12744141,-30.02929688
450109,0.475708008,-0.073364258,0.877685547,60.18066406,10.80322266,-28.99169922
450135,0.463256836,-0.090454102,0.865112305,60.36376953,11.35253906,-28.68652344
450161,0.440917969,-0.055664063,0.895507813,64.33105469,13.671875,-28.74755859
450187,0.424560547,-0.009033203,0.86315918,65.00244141,13.73291016,-27.22167969
450213,0.394775391,-0.009521484,0.850585938,70.06835938,14.70947266,-27.77099609
450240,0.389892578,0.033325195,0.853149414,73.12011719,14.70947266,-28.38134766
450266,0.390380859,0.092163086,0.846679688,72.08251953,15.13671875,-30.39550781
450292,0.366088867,0.102905273,0.847290039,79.58984375,15.31982422,-30.51757813
450318,0.347412109,0.140380859,0.853149414,85.32714844,16.17431641,-30.51757813
450345,0.343261719,0.249755859,0.866821289,82.15332031,15.99121094,-31.86035156
450371,0.30871582,0.280029297,0.873291016,74.58496094,13.85498047,-33.38623047
450397,0.290771484,0.291503906,0.859008789,72.63183594,8.605957031,-33.93554688
450423,0.264526367,0.333129883,0.828125,71.35009766,4.333496094,-34.72900391
450449,0.246704102,0.390625,0.808837891,60.66894531,-1.037597656,-36.56005859
450476,0.244995117,0.397949219,0.801879883,45.34912109,-9.582519531,-38.0859375
450502,0.240112305,0.387329102,0.793701172,44.37255859,-15.74707031,-37.71972656
450528,0.279174805,0.422363281,0.800415039,60.05859375,-15.25878906,-36.98730469
450554,0.262207031,0.514038086,0.794311523,67.68798828,-10.00976563,-41.19873047
450581,0.247802734,0.552978516,0.77734375,63.84277344,-11.35253906,-44.67773438
450607,0.272460938,0.596679688,0.769042969,57.37304688,-15.44189453,-50.10986328
450633,0.257324219,0.600952148,0.76965332,60.97412109,-14.70947266,-50.23193359
450659,0.249023438,0.651245117,0.731933594,67.13867188,-11.77978516,-51.57470703
450685,0.243774414,0.740234375,0.68762207,58.28857422,-12.75634766,-53.83300781
450712,0.237182617,0.738769531,0.706420898,57.67822266,-8.239746094,-54.44335938
450737,0.234619141,0.789916992,0.673217773,63.4765625,-4.760742188,-53.46679688
450764,0.192382813,0.893920898,0.668457031,66.04003906,2.807617188,-51.51367188
450790,0.164306641,0.933227539,0.713745117,65.06347656,6.34765625,-44.921875
450816,0.166748047,0.893432617,0.685180664,62.25585938,3.234863281,-41.62597656
450842,0.142700195,0.932617188,0.582397461,62.74414063,-0.549316406,-37.29248047
450869,0.106079102,0.999755859,0.575683594,56.03027344,-0.9765625,-30.82275391
450895,0.101318359,1.014404297,0.595092773,44.79980469,-4.699707031,-27.70996094
450921,0.10546875,0.907592773,0.565551758,34.11865234,-7.385253906,-19.83642578
450947,0.114501953,0.92980957,0.537841797,42.48046875,-6.469726563,-11.23046875
450973,0.12109375,0.994262695,0.538208008,46.08154297,-7.141113281,-3.967285156
450999,0.142456055,0.992675781,0.545898438,34.97314453,-8.361816406,-2.380371094
451026,0.137939453,0.96496582,0.517822266,18.73779297,-9.460449219,-1.953125
451052,0.116577148,0.959106445,0.497070313,9.460449219,-9.643554688,-2.9296875
451078,0.099975586,0.92578125,0.458374023,7.263183594,-9.765625,-2.075195313
451104,0.107910156,0.850463867,0.407348633,9.887695313,-7.995605469,-1.098632813
451130,0.114746094,0.818969727,0.396240234,13.61083984,-4.821777344,-4.455566406
451157,0.128173828,0.819580078,0.400878906,13.97705078,-2.44140625,-9.582519531
451183,0.135498047,0.839477539,0.41418457,14.83154297,4.638671875,-14.70947266
451209,0.114257813,0.918701172,0.448730469,20.5078125,11.65771484,-21.11816406
451235,0.081787109,0.96105957,0.470825195,23.62060547,12.75634766,-24.04785156
451261,0.074462891,0.980224609,0.435424805,24.29199219,8.972167969,-24.23095703
451287,0.051391602,1.025878906,0.441650391,22.70507813,6.8359375,-20.08056641
451313,0.034545898,1.040649414,0.454101563,18.12744141,4.272460938,-16.35742188
451339,0.016967773,1.040649414,0.423461914,10.92529297,-1.220703125,-9.765625
451366,0,1.001586914,0.387207031,2.197265625,-6.103515625,-3.967285156
451392,-0.006103516,0.983032227,0.380126953,-1.525878906,-7.690429688,-1.281738281
451418,0.006835938,0.961181641,0.364868164,-1.525878906,-7.446289063,-0.122070313
451444,0.031982422,0.939086914,0.372558594,-1.953125,-6.896972656,0.061035156
451470,0.047241211,0.927368164,0.363525391,-2.502441406,-7.019042969,-0.549316406
451496,0.046630859,0.926879883,0.37097168,-3.845214844,-5.981445313,-1.770019531
451522,0.050537109,0.915161133,0.382568359,-3.295898438,-3.90625,-3.295898438
451548,0.040771484,0.927856445,0.385131836,-1.342773438,-2.44140625,-4.150390625
451574,0.039794922,0.921875,0.379882813,-0.610351563,-1.770019531,-4.150390625
451600,0.029541016,0.93359375,0.396606445,-0.305175781,-0.915527344,-4.699707031
451627,0.02722168,0.929077148,0.397949219,-0.610351563,-0.9765625,-4.638671875
451653,0.017700195,0.931030273,0.399291992,1.037597656,-1.037597656,-4.455566406
451679,0.011108398,0.939697266,0.402954102,1.770019531,-1.831054688,-4.821777344
451705,0.015258789,0.932617188,0.391113281,1.708984375,-2.746582031,-4.699707031
451731,0.021606445,0.937011719,0.385620117,2.014160156,-2.624511719,-4.760742188
451758,0.015991211,0.93737793,0.398681641,1.525878906,-2.136230469,-4.8828125
451784,0.010620117,0.938354492,0.394042969,2.136230469,-2.014160156,-4.577636719
451810,0.005615234,0.951538086,0.395874023,2.624511719,-2.44140625,-4.333496094
451836,0.010620117,0.94921875,0.395629883,1.403808594,-3.479003906,-3.601074219
451862,0.010986328,0.942138672,0.391235352,0.549316406,-4.211425781,-3.112792969
451888,0.005126953,0.939697266,0.39440918,0.122070313,-4.699707031,-2.746582031
451915,0.005737305,0.932495117,0.388305664,0.427246094,-5.065917969,-2.746582031
451941,0.006103516,0.934814453,0.391235352,0.9765625,-5.065917969,-2.746582031
451967,0.011474609,0.935302734,0.389526367,1.220703125,-5.126953125,-2.746582031
451993,0.015014648,0.938842773,0.387817383,1.159667969,-5.126953125,-2.868652344
452019,0.012573242,0.940551758,0.388671875,0.732421875,-5.004882813,-2.990722656
452045,0.010375977,0.929077148,0.391845703,0.427246094,-5.004882813,-2.9296875
452072,0.00793457,0.944213867,0.401855469,0.9765625,-4.8828125,-2.9296875
452098,0.008300781,0.956176758,0.414672852,1.647949219,-5.249023438,-2.075195313
452124,0.018554688,0.998413086,0.413574219,1.953125,-5.920410156,-1.098632813
452150,0.004882813,1.058349609,0.470581055,0.305175781,-5.37109375,1.831054688
452176,0.009887695,1.069580078,0.498168945,-0.183105469,-6.103515625,8.361816406
452202,0.029296875,1.09765625,0.494750977,-1.281738281,-6.958007813,12.51220703
452229,0.057250977,1.114257813,0.502929688,-7.629394531,-8.239746094,17.45605469
452255,0.089599609,1.1015625,0.48828125,-18.61572266,-10.49804688,20.81298828
452281,0.146484375,1.078857422,0.487182617,-24.59716797,-10.68115234,23.49853516
452307,0.095703125,1.094848633,0.558349609,-31.25,-10.98632813,27.77099609
452333,0.159667969,1.035400391,0.510375977,-50.53710938,-15.86914063,32.10449219
452360,0.160766602,1.03527832,0.511962891,-63.78173828,-14.28222656,31.00585938
452386,0.153564453,0.974121094,0.483276367,-81.78710938,-16.66259766,33.44726563
452412,0.164550781,0.861328125,0.513793945,-83.19091797,-18.49365234,38.57421875
452438,0.162353516,0.834716797,0.573364258,-72.75390625,-10.62011719,38.45214844
452464,0.159179688,0.827026367,0.582885742,-61.64550781,-0.915527344,40.77148438
452491,0.163574219,0.84753418,0.528808594,-66.89453125,-4.516601563,43.09082031
452517,0.150756836,0.841552734,0.557739258,-78.43017578,-12.63427734,43.76220703
452543,0.196166992,0.698852539,0.620239258,-95.33691406,-23.25439453,46.20361328
452569,0.223144531,0.600585938,0.646972656,-86.05957031,-12.81738281,44.43359375
452595,0.233032227,0.596435547,0.676879883,-77.69775391,-1.037597656,41.25976563
452622,0.196533203,0.665527344,0.720703125,-92.52929688,-17.15087891,44.73876953
452648,0.229614258,0.5859375,0.71081543,-112.7929688,-26.12304688,46.02050781
452674,0.27734375,0.451416016,0.756713867,-122.3754883,-30.63964844,42.84667969
452700,0.323730469,0.343139648,0.830200195,-121.5209961,-27.40478516,38.26904297
452726,0.300170898,0.363647461,0.856933594,-122.5585938,-22.58300781,36.25488281
452752,0.323730469,0.385742188,0.793334961,-125.1220703,-32.83691406,35.03417969
452779,0.392211914,0.149902344,0.818237305,-125.1220703,-36.43798828,36.49902344
452805,0.407714844,0.051269531,0.884277344,-104.4311523,-35.03417969,38.20800781
452831,0.393554688,0.048339844,0.885864258,-84.35058594,-28.13720703,36.01074219
452857,0.40637207,0.055541992,0.856445313,-80.38330078,-26.18408203,34.36279297
452884,0.420166016,-0.006713867,0.840454102,-82.76367188,-27.95410156,33.87451172
452910,0.429321289,-0.093017578,0.848266602,-82.39746094,-30.76171875,33.02001953
452936,0.445922852,-0.142333984,0.812133789,-79.58984375,-31.18896484,32.04345703
452962,0.462280273,-0.188720703,0.756591797,-74.46289063,-31.00585938,29.96826172
452988,0.455078125,-0.173950195,0.754882813,-70.49560547,-29.78515625,28.68652344
453015,0.46862793,-0.199829102,0.725341797,-65.55175781,-26.48925781,29.54101563
453041,0.462280273,-0.276611328,0.705566406,-54.99267578,-21.78955078,30.2734375
453067,0.483154297,-0.337402344,0.701049805,-44.921875,-18.92089844,29.296875
453093,0.472045898,-0.366333008,0.721191406,-41.9921875,-16.90673828,27.52685547
453119,0.475341797,-0.392333984,0.697509766,-39.48974609,-16.47949219,24.78027344
453146,0.486572266,-0.438964844,0.677001953,-34.97314453,-13.671875,21.60644531
453172,0.483764648,-0.464233398,0.667480469,-30.70068359,-11.65771484,19.65332031
453198,0.474365234,-0.481323242,0.65612793,-22.39990234,-9.765625,15.38085938
453224,0.475463867,-0.507568359,0.696655273,-15.50292969,-9.643554688,11.10839844
453251,0.471923828,-0.491577148,0.694824219,-11.04736328,-11.96289063,7.690429688
453277,0.496948242,-0.493896484,0.701660156,-11.29150391,-12.63427734,5.676269531
453303,0.497924805,-0.48425293,0.731079102,-9.338378906,-13.24462891,4.150390625
453329,0.505004883,-0.4921875,0.729614258,-5.676269531,-11.35253906,3.723144531
453355,0.510253906,-0.490478516,0.716552734,-5.065917969,-11.29150391,3.051757813
453382,0.501342773,-0.4765625,0.7265625,-6.103515625,-10.86425781,3.112792969
453408,0.512329102,-0.487060547,0.741088867,-6.408691406,-9.582519531,2.44140625
453434,0.517578125,-0.495849609,0.71887207,-6.34765625,-8.911132813,2.075195313
453460,0.519775391,-0.496582031,0.720947266,-7.8125,-8.483886719,1.342773438
453486,0.513793945,-0.496704102,0.71484375,-8.361816406,-7.385253906,1.037597656
453513,0.516357422,-0.49230957,0.703613281,-7.690429688,-6.8359375,1.037597656
453539,0.503295898,-0.49206543,0.704223633,-6.8359375,-5.920410156,1.586914063
453565,0.498535156,-0.505371094,0.69152832,-7.019042969,-5.798339844,1.342773438
453591,0.495605469,-0.521606445,0.691772461,-5.798339844,-5.554199219,1.098632813
453618,0.498535156,-0.525878906,0.694946289,-2.624511719,-5.554199219,0.549316406
453644,0.499145508,-0.520751953,0.687255859,-1.403808594,-5.432128906,-0.305175781
453670,0.497924805,-0.525146484,0.703369141,-1.46484375,-5.554199219,-0.915527344
453697,0.505493164,-0.531616211,0.682495117,0.732421875,-4.699707031,-1.159667969
453723,0.511962891,-0.528564453,0.689575195,1.953125,-4.455566406,-1.586914063
453749,0.49621582,-0.516235352,0.716064453,3.784179688,-3.784179688,-1.220703125
453775,0.493652344,-0.509399414,0.724731445,3.295898438,-4.39453125,-0.915527344
453801,0.49230957,-0.512817383,0.702026367,1.892089844,-5.187988281,-0.9765625
453828,0.497558594,-0.516723633,0.698730469,1.159667969,-7.446289063,-0.122070313
453854,0.482543945,-0.485107422,0.714599609,-0.183105469,-7.629394531,0.793457031
453880,0.497070313,-0.497314453,0.72277832,-6.469726563,-10.00976563,1.342773438
453906,0.500244141,-0.531982422,0.689208984,-8.666992188,-9.155273438,1.770019531
453932,0.498413086,-0.551635742,0.6953125,-6.958007813,-8.178710938,1.892089844
453959,0.481567383,-0.554077148,0.706298828,-2.136230469,-6.8359375,1.831054688
453985,0.477783203,-0.54675293,0.709838867,1.098632813,-6.652832031,0.549316406
454011,0.493408203,-0.562011719,0.690673828,1.281738281,-7.019042969,-0.610351563
454037,0.490356445,-0.567626953,0.671508789,-0.122070313,-7.263183594,-2.990722656
454064,0.486083984,-0.556640625,0.683227539,-0.244140625,-6.469726563,-5.249023438
454090,0.483642578,-0.559204102,0.67956543,0.48828125,-5.798339844,-6.713867188
454116,0.483642578,-0.574951172,0.661254883,2.624511719,-5.187988281,-9.704589844
454142,0.491455078,-0.610839844,0.642089844,8.850097656,-3.356933594,-14.28222656
454168,0.497436523,-0.622924805,0.646362305,17.63916016,0.305175781,-17.76123047
454195,0.481811523,-0.607910156,0.646728516,34.1796875,6.103515625,-23.49853516
454221,0.481445313,-0.590698242,0.626464844,48.828125,10.43701172,-30.15136719
454247,0.485961914,-0.575683594,0.629150391,58.71582031,13.24462891,-37.23144531
454273,0.447265625,-0.488647461,0.655029297,69.09179688,15.44189453,-41.19873047
454299,0.432617188,-0.40246582,0.651000977,64.69726563,13.671875,-47.18017578
454325,0.443481445,-0.391845703,0.647338867,64.20898438,15.74707031,-52.06298828
454352,0.466308594,-0.361328125,0.651977539,71.47216797,19.95849609,-54.44335938
454378,0.448486328,-0.276611328,0.690307617,86.48681641,27.34375,-56.03027344
454404,0.440551758,-0.229980469,0.724487305,104.4311523,33.08105469,-54.50439453
454430,0.439575195,-0.166870117,0.759033203,118.8354492,38.02490234,-53.58886719
454457,0.392333984,-0.022094727,0.762939453,133.7280273,42.29736328,-54.62646484
454483,0.358520508,0.058837891,0.763793945,136.5966797,39.73388672,-56.82373047
454509,0.351318359,0.09765625,0.76965332,142.7612305,39.61181641,-57.06787109
454535,0.292480469,0.233886719,0.814941406,143.1274414,38.63525391,-57.98339844
454561,0.23034668,0.309448242,0.788818359,132.2631836,27.40478516,-58.41064453
454587,0.26159668,0.331542969,0.746826172,132.0800781,21.17919922,-56.09130859
454614,0.258422852,0.462768555,0.783813477,134.765625,18.31054688,-53.7109375
454640,0.187866211,0.567382813,0.805419922,131.5917969,13.85498047,-50.47607422
454666,0.174560547,0.614624023,0.766601563,128.6621094,8.850097656,-47.42431641
454692,0.233154297,0.704956055,0.678955078,114.5019531,-8.483886719,-38.87939453
454719,0.227783203,0.782348633,0.69934082,108.3984375,-18.37158203,-39.00146484
454745,0.171020508,0.831665039,0.709838867,96.55761719,-24.59716797,-23.07128906
454771,0.245605469,0.846679688,0.666137695,101.6845703,-16.47949219,-37.109375
454797,0.237792969,0.907470703,0.604736328,93.07861328,-21.24023438,-26.55029297
454824,0.21496582,0.927001953,0.623291016,91.12548828,-18.92089844,-33.08105469
454850,0.215332031,0.955932617,0.629760742,86.97509766,-19.40917969,-31.49414063
454876,0.218383789,0.984741211,0.564575195,82.76367188,-19.83642578,-28.56445313
454902,0.188842773,1.053710938,0.510620117,70.92285156,-25.20751953,-18.61572266
454929,0.203491211,1.049194336,0.515136719,59.32617188,-26.30615234,-13.61083984
454955,0.247924805,1.000854492,0.472290039,41.015625,-33.203125,-1.46484375
454981,0.284179688,0.95690918,0.457519531,27.46582031,-18.79882813,-1.403808594
455007,0.309814453,0.979858398,0.48449707,22.39990234,-8.178710938,-15.80810547
455033,0.255981445,0.962402344,0.432373047,16.84570313,3.845214844,-24.4140625
455060,0.20703125,0.99206543,0.346801758,17.15087891,8.483886719,-23.37646484
455086,0.184204102,0.978393555,0.345581055,13.12255859,6.103515625,-19.71435547
455112,0.187255859,0.924804688,0.337890625,9.643554688,-0.9765625,-13.18359375
455138,0.193847656,0.924560547,0.334716797,7.751464844,-5.187988281,-10.13183594
455164,0.210571289,0.932250977,0.347900391,6.896972656,-4.943847656,-10.31494141
455191,0.193847656,0.958496094,0.405029297,4.821777344,0.061035156,-14.34326172
455217,0.172729492,0.953979492,0.405395508,7.080078125,6.34765625,-16.54052734
455243,0.156616211,0.971923828,0.384277344,10.31494141,7.507324219,-16.96777344
455269,0.124023438,1.003540039,0.416259766,10.86425781,4.699707031,-14.46533203
455295,0.131225586,0.987670898,0.443115234,9.033203125,-1.281738281,-9.826660156
455322,0.126831055,0.996337891,0.424438477,7.8125,-4.760742188,-7.263183594
455348,0.135375977,1.007324219,0.381835938,6.34765625,-8.361816406,-3.90625
455374,0.118896484,0.99609375,0.350952148,5.004882813,-9.826660156,-1.708984375
455400,0.109008789,0.987060547,0.348144531,2.746582031,-11.41357422,1.098632813
455426,0.114624023,0.962036133,0.358154297,0.244140625,-12.26806641,2.44140625
455453,0.131225586,0.943115234,0.344726563,0.48828125,-12.02392578,2.990722656
455479,0.126708984,0.951660156,0.338256836,-0.427246094,-11.59667969,2.136230469
455505,0.12487793,0.929077148,0.35546875,1.037597656,-11.77978516,0.732421875
455531,0.147338867,0.900024414,0.349853516,-0.122070313,-12.39013672,-0.9765625
