timestamp,ax,ay,az,gx,gy,gz
602120,-0.022949219,0.931396484,0.448852539,29.66308594,-20.26367188,-0.122070313
602147,-0.016845703,0.945068359,0.437988281,25.45166016,-17.02880859,1.770019531
602173,-0.007324219,0.876098633,0.422973633,12.20703125,-17.76123047,2.502441406
602199,0.003051758,0.891967773,0.40625,8.7890625,-17.45605469,0.427246094
602225,0.013793945,0.96081543,0.362792969,-2.44140625,-15.74707031,-1.159667969
602251,0.028320313,0.944091797,0.374755859,-24.16992188,-10.7421875,-3.479003906
602278,0.041381836,0.907348633,0.380493164,-36.1328125,-7.080078125,-4.577636719
602304,0.038818359,0.971679688,0.403198242,-57.55615234,-1.098632813,-6.530761719
602330,0.019775391,0.982788086,0.486450195,-98.32763672,4.516601563,-7.751464844
602356,0.007324219,0.883300781,0.538574219,-111.8164063,4.333496094,-4.821777344
602382,0.004516602,0.823608398,0.624145508,-113.6474609,3.051757813,0.732421875
602409,-0.005126953,0.82421875,0.747314453,-121.7651367,-0.915527344,1.220703125
602435,-0.014770508,0.759399414,0.798461914,-114.7460938,-10.43701172,0.183105469
602461,0.020751953,0.663208008,0.786987305,-87.40234375,-4.821777344,13.73291016
602487,0.026000977,0.626464844,0.789550781,-71.22802734,-3.112792969,13.12255859
602514,0.062744141,0.616943359,0.783691406,-57.92236328,2.990722656,18.5546875
602540,0.052612305,0.545776367,0.806762695,-52.42919922,6.408691406,18.5546875
602566,0.040649414,0.4140625,0.775024414,-30.88378906,9.521484375,16.66259766
602592,0.025268555,0.358886719,0.713012695,2.44140625,22.15576172,13.36669922
602618,0.037841797,0.401977539,0.747680664,28.3203125,31.06689453,9.765625
602644,0.012451172,0.352783203,0.874633789,71.59423828,33.93554688,6.591796875
602671,-0.005249023,0.427246094,0.880981445,133.5449219,28.13720703,12.20703125
602697,-0.028686523,0.575073242,0.737426758,163.9404297,24.4140625,12.87841797
602723,-0.06652832,0.838623047,0.552246094,175.2319336,17.21191406,5.615234375
602749,-0.091064453,0.992675781,0.536010742,142.4560547,12.87841797,0.061035156
602775,-0.067382813,0.941040039,0.507202148,123.2910156,7.446289063,7.873535156
602801,-0.074951172,1.014648438,0.506958008,118.4692383,6.34765625,7.751464844
602828,-0.064819336,1.046508789,0.43371582,104.9194336,0,8.728027344
602854,-0.072387695,1.071533203,0.399169922,96.49658203,-2.136230469,7.202148438
602880,-0.062255859,1.062744141,0.325195313,82.88574219,-5.737304688,8.728027344
602906,-0.086547852,1.092651367,0.291748047,66.83349609,-6.286621094,9.582519531
602932,-0.068481445,1.103149414,0.287353516,55.6640625,-5.187988281,10.37597656
602958,-0.079833984,1.113647461,0.276733398,50.59814453,0.305175781,13.54980469
602985,-0.048828125,1.108032227,0.203369141,39.12353516,2.807617188,26.48925781
603011,-0.033325195,1.099609375,0.208618164,32.40966797,5.493164063,30.2734375
603037,-0.014892578,1.090209961,0.211547852,23.07128906,3.601074219,34.05761719
603063,0.029541016,1.088378906,0.187988281,12.20703125,0.549316406,38.39111328
603089,0.049438477,1.088500977,0.198730469,7.32421875,2.258300781,41.56494141
603116,0.081176758,1.098632813,0.201538086,-3.051757813,-0.061035156,41.13769531
603142,0.105712891,1.109375,0.207275391,-11.35253906,0.671386719,42.41943359
603168,0.131958008,1.061767578,0.232421875,-18.24951172,2.319335938,45.65429688
603194,0.172851563,1.060424805,0.213623047,-25.20751953,2.319335938,44.25048828
603220,0.200195313,1.079223633,0.220581055,-36.19384766,1.831054688,45.95947266
603246,0.185058594,1.083740234,0.27746582,-46.26464844,3.173828125,49.62158203
603273,0.229980469,1.031616211,0.260864258,-53.46679688,2.258300781,49.19433594
603299,0.267456055,1.000732422,0.284423828,-64.69726563,0.122070313,50.04882813
603325,0.217651367,1.031494141,0.389526367,-88.56201172,-13.54980469,58.59375
603352,0.355712891,0.811279297,0.302490234,-88.8671875,-19.28710938,56.21337891
603378,0.343017578,0.780395508,0.338012695,-47.24121094,14.03808594,48.46191406
603404,0.369873047,0.658569336,0.261108398,-26.18408203,33.99658203,35.70556641
603431,0.486572266,0.536254883,0.299316406,-14.34326172,54.80957031,28.13720703
603457,0.354370117,0.680664063,0.389282227,-78.125,-12.57324219,27.03857422
603483,0.361206055,0.721557617,0.399658203,-41.62597656,22.52197266,-4.333496094
603509,0.326782227,0.773681641,0.422973633,-59.26513672,0.48828125,25.02441406
603535,0.298217773,0.694580078,0.516723633,-55.84716797,3.234863281,17.08984375
603561,0.350341797,0.619873047,0.51171875,-59.99755859,-11.77978516,25.69580078
603588,0.366210938,0.602539063,0.496704102,-49.01123047,-6.591796875,22.52197266
603614,0.406616211,0.586181641,0.478759766,-29.17480469,6.225585938,12.87841797
603640,0.349975586,0.606933594,0.549926758,-27.52685547,5.920410156,12.32910156
603666,0.360717773,0.6171875,0.577026367,-23.92578125,6.958007813,9.216308594
603692,0.346801758,0.604980469,0.618286133,-21.24023438,5.737304688,11.71875
603719,0.373413086,0.633300781,0.614013672,-17.02880859,4.272460938,11.35253906
603745,0.368408203,0.638305664,0.667358398,-15.625,4.760742188,13.18359375
603771,0.366210938,0.628417969,0.697875977,-14.40429688,2.807617188,14.28222656
603797,0.386230469,0.623657227,0.677734375,-14.83154297,0,15.50292969
603823,0.385986328,0.633666992,0.692138672,-14.58740234,0.427246094,15.68603516
603849,0.399780273,0.597290039,0.70300293,-17.578125,-0.427246094,15.01464844
603876,0.419433594,0.544311523,0.717285156,-18.06640625,-1.770019531,13.671875
603902,0.41015625,0.547851563,0.721557617,-12.39013672,-0.549316406,10.55908203
603928,0.405395508,0.58215332,0.705444336,-12.08496094,-0.122070313,9.887695313
603954,0.410644531,0.544311523,0.730224609,-12.87841797,-1.037597656,8.544921875
603981,0.401123047,0.525756836,0.752319336,-10.25390625,-2.197265625,5.859375
604007,0.400634766,0.519287109,0.748413086,-7.690429688,-3.479003906,4.211425781
604033,0.40234375,0.548950195,0.716918945,-5.493164063,-4.577636719,2.197265625
604059,0.41027832,0.545654297,0.70690918,-5.615234375,-4.089355469,2.258300781
604085,0.413085938,0.545898438,0.703735352,-5.065917969,-3.356933594,2.319335938
604112,0.41796875,0.525146484,0.716918945,-4.39453125,-2.746582031,1.586914063
604138,0.423339844,0.516723633,0.74597168,-5.981445313,-2.685546875,0.061035156
604164,0.413818359,0.495361328,0.773193359,-5.798339844,-3.41796875,-0.854492188
604190,0.417602539,0.470947266,0.794921875,-3.845214844,-6.530761719,-2.807617188
604217,0.415893555,0.477050781,0.784667969,-0.183105469,-10.00976563,-5.798339844
604243,0.419555664,0.505004883,0.752197266,0.915527344,-11.35253906,-7.751464844
604269,0.426269531,0.5390625,0.768676758,5.249023438,-10.49804688,-7.263183594
604295,0.429077148,0.556762695,0.767822266,6.103515625,-10.55908203,-6.896972656
604322,0.43737793,0.550415039,0.745605469,4.577636719,-10.43701172,-5.676269531
604348,0.452270508,0.570556641,0.703735352,4.821777344,-9.948730469,-5.126953125
604375,0.451660156,0.586425781,0.710571289,1.770019531,-7.751464844,-3.967285156
604401,0.448730469,0.555419922,0.748535156,0.48828125,-6.469726563,-2.807617188
604427,0.441162109,0.547607422,0.74230957,2.197265625,-6.469726563,-2.685546875
604453,0.435791016,0.568359375,0.734130859,2.197265625,-5.798339844,-3.051757813
604479,0.418334961,0.548950195,0.755615234,1.159667969,-6.652832031,-3.173828125
604506,0.420776367,0.552368164,0.750854492,0.48828125,-7.690429688,-3.051757813
604532,0.434814453,0.533203125,0.723754883,-0.427246094,-8.422851563,-3.601074219
604558,0.426635742,0.566040039,0.735595703,2.44140625,-6.713867188,-4.333496094
604584,0.420776367,0.567016602,0.741699219,0.366210938,-7.568359375,-3.90625
604610,0.44152832,0.53125,0.740356445,-0.915527344,-8.850097656,-3.479003906
604637,0.443603516,0.555786133,0.724487305,1.770019531,-6.958007813,-4.089355469
604663,0.436035156,0.560546875,0.733032227,0.122070313,-6.591796875,-4.028320313
604689,0.44921875,0.542236328,0.751586914,-0.915527344,-7.019042969,-4.028320313
604715,0.444702148,0.548217773,0.748046875,0.305175781,-7.202148438,-3.784179688
604742,0.44519043,0.549438477,0.727783203,0.732421875,-7.385253906,-3.601074219
604768,0.45324707,0.562744141,0.723266602,2.319335938,-5.126953125,-2.685546875
604794,0.450439453,0.565063477,0.72644043,1.46484375,-4.272460938,-1.953125
604820,0.449707031,0.557006836,0.733276367,1.220703125,-3.723144531,-1.46484375
604846,0.443847656,0.563720703,0.735839844,1.586914063,-2.258300781,-1.159667969
604873,0.432250977,0.556152344,0.745849609,0.549316406,-3.173828125,-0.427246094
604899,0.427856445,0.531005859,0.772583008,0.793457031,-4.089355469,-0.9765625
604925,0.419433594,0.506713867,0.793945313,1.220703125,-6.652832031,-2.075195313
604951,0.433227539,0.530639648,0.735107422,0.366210938,-8.361816406,-4.333496094
604977,0.452148438,0.530761719,0.703857422,1.892089844,-7.263183594,-5.126953125
605004,0.431518555,0.545898438,0.726928711,3.967285156,-6.042480469,-5.37109375
605030,0.437011719,0.568359375,0.734130859,1.403808594,-5.737304688,-3.41796875
605056,0.454101563,0.556030273,0.731567383,0.915527344,-5.065917969,-2.380371094
605082,0.443847656,0.563232422,0.737182617,1.159667969,-4.638671875,-2.44140625
605108,0.443603516,0.54284668,0.749755859,0.183105469,-5.798339844,-1.892089844
605135,0.43347168,0.531616211,0.748168945,-0.244140625,-5.310058594,-2.502441406
605161,0.429321289,0.523071289,0.754394531,-0.9765625,-6.164550781,-2.990722656
605187,0.430786133,0.520141602,0.741821289,-0.244140625,-6.896972656,-4.699707031
605213,0.424682617,0.517822266,0.735107422,-1.037597656,-7.446289063,-5.859375
605240,0.422119141,0.522338867,0.744018555,-1.953125,-8.117675781,-6.652832031
605266,0.432739258,0.524169922,0.736328125,0.244140625,-8.728027344,-7.568359375
605292,0.440917969,0.564453125,0.740478516,1.098632813,-7.507324219,-7.629394531
605318,0.443237305,0.561401367,0.724853516,0.793457031,-7.751464844,-6.8359375
605344,0.450317383,0.588867188,0.733886719,4.943847656,-4.8828125,-4.272460938
605371,0.442749023,0.620239258,0.729003906,4.577636719,-2.563476563,-1.098632813
605397,0.437866211,0.614257813,0.74597168,2.807617188,-2.014160156,1.586914063
605423,0.438964844,0.569213867,0.751342773,-2.075195313,-3.234863281,3.540039063
605449,0.427001953,0.499267578,0.772338867,-6.103515625,-5.432128906,1.831054688
605475,0.425537109,0.459960938,0.778686523,-6.408691406,-6.652832031,-0.732421875
605502,0.422363281,0.420654297,0.7890625,-3.845214844,-8.911132813,-6.713867188
605528,0.403076172,0.455200195,0.760498047,-1.647949219,-12.81738281,-13.30566406
605554,0.389160156,0.484619141,0.74597168,-6.286621094,-16.54052734,-18.5546875
605581,0.401733398,0.475585938,0.742797852,-13.79394531,-20.08056641,-21.91162109
605607,0.399536133,0.440429688,0.729614258,-18.79882813,-22.88818359,-27.95410156
605633,0.389038086,0.463623047,0.732788086,-26.73339844,-23.25439453,-35.52246094
605659,0.395629883,0.420532227,0.674316406,-33.14208984,-25.57373047,-40.71044922
605685,0.421142578,0.426147461,0.609130859,-39.61181641,-23.4375,-46.63085938
605711,0.407592773,0.442993164,0.6015625,-60.79101563,-14.70947266,-56.45751953
605738,0.387573242,0.391235352,0.592285156,-77.94189453,-10.00976563,-62.80517578
605764,0.384155273,0.249389648,0.555786133,-74.70703125,-3.173828125,-70.55664063
605790,0.341674805,0.229492188,0.650268555,-40.58837891,15.68603516,-72.81494141
605816,0.301269531,0.356933594,0.698364258,-23.92578125,25.93994141,-77.51464844
605843,0.237182617,0.524414063,0.693115234,-30.70068359,33.93554688,-82.51953125
605869,0.210327148,0.391601563,0.763427734,-32.2265625,33.44726563,-76.53808594
605895,0.209106445,0.420654297,0.813476563,-18.00537109,38.0859375,-71.47216797
605921,0.123535156,0.651977539,0.951416016,-15.44189453,42.11425781,-67.93212891
605947,0.106811523,0.655639648,0.943359375,-52.91748047,28.93066406,-62.62207031
605974,0.142456055,0.393920898,0.909057617,-60.91308594,25.75683594,-55.35888672
606000,0.115844727,0.369628906,0.970092773,-28.38134766,24.16992188,-47.30224609
606026,0.030761719,0.534667969,1.019775391,-20.20263672,20.56884766,-47.97363281
606052,0.033081055,0.435058594,1.027587891,-17.578125,15.50292969,-45.71533203
606078,0.051025391,0.312744141,0.985351563,11.41357422,10.43701172,-37.96386719
606105,-0.005004883,0.488647461,1.042358398,35.94970703,6.652832031,-36.25488281
606131,-0.014160156,0.564453125,1.058105469,26.18408203,-1.159667969,-32.28759766
606157,0.006225586,0.455078125,1.018676758,13.30566406,-16.6015625,-28.3203125
606183,0.044433594,0.458862305,1.032226563,21.72851563,-23.80371094,-24.04785156
606209,0.057250977,0.485229492,1.034912109,26.48925781,-27.28271484,-21.54541016
606236,0.029907227,0.559448242,1.006591797,20.14160156,-26.18408203,-16.78466797
606262,0.054321289,0.594360352,0.938720703,-3.295898438,-33.93554688,-15.74707031
606288,0.096923828,0.573486328,0.904052734,-37.17041016,-40.10009766,-15.99121094
606314,0.150756836,0.483520508,0.919433594,-54.19921875,-40.22216797,-16.90673828
606340,0.206787109,0.329833984,1.043701172,-62.43896484,-27.22167969,-14.03808594
606366,0.188476563,0.25378418,1.096069336,-48.828125,-8.178710938,-8.850097656
606392,0.129638672,0.313842773,1.064208984,-26.97753906,0.122070313,-6.34765625
606419,0.106689453,0.34777832,0.964355469,-5.249023438,-0.183105469,-3.234863281
606445,0.109375,0.30480957,0.896850586,6.652832031,-4.333496094,-3.90625
606471,0.111083984,0.314697266,0.919067383,14.22119141,-5.065917969,-3.540039063
606497,0.077880859,0.364501953,0.957885742,17.82226563,-5.004882813,-1.953125
606523,0.067260742,0.354614258,0.953125,18.06640625,-5.310058594,0.183105469
606550,0.083129883,0.334228516,0.930786133,20.87402344,-4.455566406,0.48828125
606576,0.09777832,0.337402344,0.896484375,32.77587891,-0.915527344,-0.305175781
606602,0.104492188,0.412109375,0.896240234,44.921875,4.150390625,-0.305175781
606628,0.111083984,0.452880859,0.902587891,45.95947266,5.432128906,0.183105469
606654,0.111572266,0.473266602,0.863769531,39.67285156,5.126953125,0.305175781
606681,0.093994141,0.486450195,0.822387695,29.23583984,8.117675781,0.183105469
606707,0.076782227,0.507446289,0.853149414,22.64404297,8.361816406,0.183105469
606733,0.058105469,0.500732422,0.886108398,11.47460938,7.568359375,1.342773438
606759,0.050048828,0.476806641,0.890136719,8.7890625,7.080078125,2.807617188
606785,0.05090332,0.466796875,0.893310547,7.629394531,6.408691406,2.807617188
606811,0.047485352,0.463500977,0.897094727,9.826660156,5.554199219,2.44140625
606838,0.044677734,0.494628906,0.88293457,15.625,5.37109375,3.295898438
606864,0.041259766,0.48449707,0.853393555,17.27294922,6.34765625,3.41796875
606890,0.044433594,0.439697266,0.781860352,30.57861328,10.80322266,3.356933594
606916,0.040039063,0.536865234,0.821655273,46.26464844,14.83154297,3.601074219
606942,0.042358398,0.580688477,0.84375,45.41015625,16.05224609,3.173828125
606968,0.038574219,0.579589844,0.840942383,34.85107422,16.29638672,2.563476563
606995,0.019042969,0.571166992,0.803100586,23.19335938,14.34326172,2.319335938
607022,-0.012207031,0.60546875,0.802856445,0.793457031,13.85498047,1.525878906
607048,-0.037353516,0.502685547,0.936279297,-7.32421875,10.25390625,0
607074,-0.088623047,0.540405273,0.987426758,5.493164063,3.723144531,-2.319335938
607100,-0.055053711,0.560424805,0.862548828,11.84082031,-4.272460938,-3.784179688
607126,-0.040527344,0.571655273,0.809082031,14.52636719,-6.34765625,-4.577636719
607152,-0.003662109,0.61328125,0.754638672,7.507324219,-8.728027344,-6.591796875
607179,-0.004516602,0.618774414,0.766113281,-9.094238281,-6.774902344,-8.056640625
607205,0.001831055,0.62109375,0.783813477,-21.66748047,-6.530761719,-8.911132813
607231,-0.012451172,0.592041016,0.850830078,-38.69628906,-8.728027344,-9.033203125
607257,-0.04284668,0.612915039,0.902709961,-50.84228516,-9.155273438,-7.385253906
607283,-0.060791016,0.479980469,0.959350586,-43.02978516,-10.55908203,-3.90625
607310,-0.050415039,0.530151367,0.932373047,4.8828125,-11.41357422,1.831054688
607336,-0.034179688,0.517456055,0.889526367,13.06152344,-13.36669922,5.249023438
607362,0.010009766,0.497314453,0.82409668,26.30615234,-13.00048828,7.019042969
607388,0.052246094,0.395141602,0.825317383,55.35888672,-7.995605469,7.629394531
607414,0.059814453,0.463867188,0.810424805,94.66552734,-0.671386719,7.263183594
607441,0.050415039,0.531738281,0.778808594,120.8496094,0,7.507324219
607467,0.04675293,0.718017578,0.732177734,143.2495117,0,6.8359375
607493,0.016601563,0.797973633,0.664306641,148.4375,-0.549316406,10.98632813
607518,0.034423828,0.964599609,0.62512207,146.4233398,-0.915527344,13.73291016
607544,0.037109375,0.926025391,0.587402344,132.1411133,-1.281738281,19.34814453
607571,0.032348633,0.997314453,0.532104492,132.8125,0.549316406,23.68164063
607597,0.036254883,1.059082031,0.477783203,126.3427734,1.281738281,26.06201172
607623,0.030883789,1.101196289,0.451293945,103.1494141,5.004882813,29.296875
607649,0.061401367,1.089111328,0.413818359,85.87646484,4.760742188,34.54589844
607675,0.075195313,1.163574219,0.402709961,68.72558594,3.356933594,37.17041016
607701,0.095458984,1.17199707,0.405517578,38.63525391,1.525878906,44.43359375
607727,0.143554688,1.091308594,0.314819336,13.24462891,-6.469726563,49.92675781
607754,0.18371582,1.114257813,0.291625977,5.126953125,-6.34765625,54.99267578
607780,0.200805664,1.138183594,0.276977539,-10.00976563,-3.601074219,57.49511719
607806,0.237182617,1.038085938,0.266235352,-25.08544922,-1.647949219,61.5234375
607832,0.255126953,0.996337891,0.258056641,-35.58349609,-0.671386719,62.5
607858,0.272338867,0.95300293,0.266601563,-43.21289063,-0.671386719,63.29345703
607885,0.290893555,0.883056641,0.255737305,-45.83740234,0.244140625,63.53759766
607911,0.302368164,0.868164063,0.264404297,-47.05810547,2.319335938,61.76757813
607937,0.325927734,0.799438477,0.30859375,-50.17089844,3.112792969,60.72998047
607963,0.337036133,0.69519043,0.3359375,-51.51367188,1.831054688,57.67822266
607989,0.394165039,0.611572266,0.313598633,-29.96826172,14.16015625,48.09570313
608015,0.336181641,0.793457031,0.387939453,-18.98193359,21.05712891,37.47558594
608041,0.374145508,0.708374023,0.397949219,-39.67285156,3.845214844,45.65429688
608068,0.399291992,0.654296875,0.450805664,-37.78076172,1.647949219,42.05322266
608095,0.430908203,0.636352539,0.441894531,-30.15136719,3.295898438,38.39111328
608121,0.439941406,0.657958984,0.470458984,-33.08105469,-1.892089844,37.109375
608147,0.466430664,0.642944336,0.511230469,-33.08105469,-3.90625,35.15625
608174,0.470825195,0.630981445,0.537597656,-27.46582031,-1.342773438,33.63037109
608200,0.491943359,0.621582031,0.53125,-26.48925781,-3.234863281,31.25
608226,0.495117188,0.630981445,0.544067383,-22.4609375,0.9765625,27.03857422
608252,0.506469727,0.592773438,0.551757813,-20.62988281,2.075195313,25.81787109
608278,0.521728516,0.555175781,0.559204102,-18.31054688,1.037597656,23.74267578
608305,0.527099609,0.5546875,0.567382813,-16.35742188,3.051757813,19.95849609
608331,0.521118164,0.529174805,0.582763672,-17.02880859,2.624511719,15.93017578
608357,0.522827148,0.499755859,0.601806641,-16.47949219,2.868652344,12.51220703
608383,0.519165039,0.504272461,0.625976563,-10.43701172,3.90625,7.568359375
608409,0.512207031,0.509155273,0.654663086,-7.995605469,2.9296875,3.784179688
608436,0.521362305,0.499145508,0.662597656,-5.065917969,0.9765625,2.075195313
608462,0.528320313,0.500976563,0.718994141,-2.685546875,-3.479003906,-1.220703125
608488,0.540283203,0.507446289,0.699951172,-3.356933594,-10.92529297,-4.39453125
608514,0.566040039,0.543334961,0.665039063,-1.708984375,-12.51220703,-5.554199219
608540,0.582885742,0.561401367,0.626220703,2.502441406,-11.53564453,-5.432128906
608566,0.576782227,0.590576172,0.624633789,4.028320313,-8.728027344,-4.272460938
608593,0.578979492,0.589111328,0.603027344,1.525878906,-7.8125,-3.173828125
608619,0.577026367,0.575683594,0.601074219,-0.915527344,-4.39453125,-1.525878906
608645,0.56237793,0.558105469,0.614990234,-1.281738281,-2.319335938,-0.732421875
608671,0.555786133,0.533691406,0.643310547,-2.502441406,-2.563476563,-1.220703125
608697,0.548706055,0.487670898,0.670532227,-1.708984375,-4.943847656,-3.234863281
608723,0.555541992,0.516113281,0.658813477,-0.183105469,-7.019042969,-6.530761719
608749,0.565185547,0.533691406,0.644897461,0.854492188,-7.995605469,-7.690429688
608775,0.556762695,0.572021484,0.648925781,4.821777344,-6.8359375,-7.690429688
608802,0.554443359,0.601196289,0.643188477,5.432128906,-7.446289063,-5.004882813
608828,0.570678711,0.615722656,0.625,4.39453125,-7.507324219,-3.051757813
608854,0.581665039,0.62097168,0.600219727,2.502441406,-4.943847656,0.366210938
608880,0.573120117,0.582275391,0.62097168,-1.281738281,-2.746582031,2.258300781
608906,0.565307617,0.534545898,0.64440918,-2.136230469,-2.075195313,2.380371094
608933,0.560180664,0.508666992,0.667236328,-0.122070313,-2.624511719,-0.366210938
608959,0.541259766,0.516357422,0.662475586,1.037597656,-4.333496094,-3.845214844
608985,0.551757813,0.529418945,0.657348633,2.014160156,-5.126953125,-5.065917969
609011,0.549560547,0.577514648,0.652954102,4.455566406,-5.37109375,-5.187988281
609038,0.548339844,0.596557617,0.641235352,3.479003906,-6.225585938,-2.9296875
609064,0.561645508,0.599487305,0.625610352,1.953125,-6.34765625,-0.183105469
609090,0.56628418,0.568115234,0.643920898,0.366210938,-5.310058594,0.610351563
609116,0.568115234,0.545532227,0.65625,-0.366210938,-5.554199219,0.427246094
609142,0.562744141,0.530273438,0.653442383,-0.793457031,-6.286621094,-0.793457031
609169,0.556396484,0.51953125,0.660522461,0.305175781,-5.981445313,-2.014160156
609195,0.56640625,0.537109375,0.657836914,2.197265625,-6.896972656,-3.601074219
609221,0.564819336,0.584960938,0.634765625,1.953125,-7.568359375,-4.577636719
609247,0.563354492,0.561157227,0.636352539,1.708984375,-7.385253906,-4.150390625
609274,0.564331055,0.578369141,0.64050293,2.44140625,-6.713867188,-3.356933594
609300,0.565185547,0.564086914,0.637695313,0.671386719,-7.141113281,-2.197265625
609326,0.568359375,0.560546875,0.645263672,0.366210938,-6.774902344,-2.319335938
609353,0.572509766,0.540161133,0.658447266,0,-6.34765625,-2.746582031
609379,0.563842773,0.543212891,0.652587891,0.854492188,-6.286621094,-4.333496094
609405,0.559692383,0.551269531,0.653320313,-0.427246094,-6.958007813,-4.943847656
609431,0.555297852,0.540405273,0.650390625,-2.136230469,-7.629394531,-5.432128906
609458,0.551513672,0.535766602,0.666381836,-1.403808594,-8.666992188,-6.225585938
609483,0.552612305,0.550415039,0.660888672,-2.9296875,-10.25390625,-7.019042969
609510,0.551147461,0.54675293,0.653076172,-11.71875,-13.00048828,-9.338378906
609536,0.56262207,0.475830078,0.656982422,-13.671875,-15.07568359,-12.32910156
609562,0.562744141,0.462768555,0.656005859,-4.211425781,-14.83154297,-13.73291016
609588,0.55456543,0.558227539,0.650634766,6.8359375,-13.06152344,-15.25878906
609614,0.560913086,0.602172852,0.641845703,6.103515625,-13.42773438,-13.91601563
609640,0.577148438,0.616699219,0.618286133,5.798339844,-13.00048828,-12.02392578
609667,0.593017578,0.644165039,0.591064453,4.39453125,-10.07080078,-7.507324219
609693,0.596191406,0.630981445,0.606567383,1.892089844,-7.385253906,-2.990722656
609719,0.595092773,0.607666016,0.612548828,0.854492188,-6.103515625,0.366210938
609745,0.59765625,0.581665039,0.621948242,-0.610351563,-4.150390625,1.342773438
609771,0.588256836,0.554443359,0.628173828,-2.319335938,-2.746582031,1.525878906
609797,0.58190918,0.535400391,0.641479492,-0.305175781,-1.708984375,1.281738281
609824,0.5703125,0.544311523,0.644287109,1.586914063,-1.586914063,0.915527344
609850,0.563232422,0.53503418,0.658935547,-1.159667969,-3.173828125,0.061035156
609876,0.569580078,0.518676758,0.653564453,0.671386719,-4.577636719,-1.220703125
609903,0.567504883,0.541015625,0.655883789,2.990722656,-4.333496094,-1.831054688
609929,0.55859375,0.549438477,0.658447266,1.403808594,-5.554199219,-2.685546875
609955,0.569824219,0.522460938,0.65625,-0.48828125,-7.202148438,-4.089355469
609981,0.559204102,0.53112793,0.658203125,0.9765625,-7.8125,-5.737304688
610007,0.546508789,0.530639648,0.668823242,-1.098632813,-9.521484375,-7.568359375
610033,0.549194336,0.467651367,0.693725586,-3.051757813,-13.12255859,-11.04736328
610059,0.542480469,0.444213867,0.696777344,-1.831054688,-15.86914063,-15.56396484
610086,0.528076172,0.430175781,0.669433594,-1.586914063,-20.87402344,-23.74267578
610112,0.514404297,0.442138672,0.615844727,0.732421875,-24.84130859,-32.10449219
610138,0.516845703,0.492675781,0.608886719,4.333496094,-25.75683594,-37.04833984
610164,0.512817383,0.551147461,0.591796875,1.770019531,-27.09960938,-42.35839844
610190,0.498168945,0.632324219,0.572509766,-23.92578125,-27.58789063,-48.09570313
610217,0.516235352,0.533813477,0.568115234,-50.72021484,-29.96826172,-54.62646484
610243,0.521850586,0.480957031,0.55090332,-73.66943359,-27.83203125,-64.57519531
610269,0.49609375,0.519165039,0.559936523,-88.13476563,-17.578125,-75.68359375
610295,0.470703125,0.560546875,0.573364258,-95.64208984,-11.77978516,-80.13916016
610321,0.434326172,0.514770508,0.613525391,-99.609375,-3.540039063,-81.17675781
610347,0.424560547,0.422851563,0.623413086,-84.77783203,6.591796875,-80.20019531
610373,0.408081055,0.38293457,0.60925293,-56.15234375,16.23535156,-77.27050781
610400,0.340698242,0.506347656,0.635009766,-13.24462891,30.57861328,-73.54736328
610426,0.251953125,0.605224609,0.651123047,-1.892089844,40.58837891,-76.59912109
610452,0.231689453,0.544921875,0.676391602,-9.338378906,35.76660156,-70.67871094
610478,0.203613281,0.514770508,0.7109375,-2.685546875,33.69140625,-69.15283203
610505,0.168579102,0.635375977,0.741455078,2.685546875,28.56445313,-64.88037109
610531,0.171142578,0.643554688,0.752075195,1.46484375,26.61132813,-63.11035156
610557,0.182983398,0.516479492,0.723144531,9.765625,28.93066406,-58.59375
610583,0.082641602,0.669677734,0.779663086,22.88818359,33.44726563,-55.48095703
610609,0.063110352,0.770629883,0.824829102,5.432128906,29.96826172,-52.36816406
610635,0.055541992,0.759277344,0.913085938,-6.34765625,24.90234375,-47.79052734
610662,0,0.646362305,0.978881836,-12.26806641,13.61083984,-44.06738281
610688,0.043212891,0.739624023,0.92956543,-10.98632813,4.760742188,-25.69580078
610714,0.071411133,0.672851563,0.95324707,-8.544921875,-1.647949219,-25.45166016
610740,0.110961914,0.603637695,0.999267578,6.774902344,0.793457031,-28.56445313
610766,0.132202148,0.641601563,1.121826172,8.728027344,9.338378906,-34.36279297
610792,0.053955078,0.582885742,1.078491211,3.967285156,14.46533203,-33.50830078
610819,-0.021118164,0.639770508,0.882446289,6.591796875,15.44189453,-29.96826172
610845,-0.015625,0.710205078,0.692626953,-17.45605469,7.568359375,-26.67236328
610871,-0.009399414,0.64440918,0.740478516,-29.66308594,4.39453125,-25.390625
610897,-0.027832031,0.515991211,0.974121094,-31.12792969,3.845214844,-23.80371094
610924,-0.037353516,0.611694336,0.994262695,-3.845214844,5.554199219,-18.79882813
610950,-0.038208008,0.618041992,0.979736328,2.014160156,3.90625,-12.32910156
610976,-0.087158203,0.660522461,0.880126953,7.141113281,-3.723144531,-4.516601563
611002,-0.071533203,0.583984375,0.842163086,2.197265625,-7.080078125,-0.366210938
611028,-0.074951172,0.560058594,0.830810547,2.075195313,-6.591796875,0.427246094
611054,-0.074951172,0.546264648,0.812133789,1.281738281,-6.042480469,0.122070313
611081,-0.066894531,0.537231445,0.816894531,-0.9765625,-6.042480469,-0.915527344
611107,-0.066894531,0.536376953,0.830200195,-0.9765625,-5.859375,-1.647949219
611133,-0.055541992,0.556396484,0.839599609,0.671386719,-6.34765625,-2.197265625
611159,-0.052734375,0.567016602,0.838256836,-0.366210938,-6.774902344,-1.892089844
611185,-0.049682617,0.551879883,0.830444336,-1.46484375,-6.652832031,-1.525878906
611211,-0.056518555,0.551391602,0.846313477,-1.525878906,-7.32421875,-1.037597656
611238,-0.05078125,0.539794922,0.838745117,-0.122070313,-7.690429688,-1.098632813
611264,-0.039794922,0.526489258,0.810058594,0.122070313,-6.958007813,-2.44140625
611290,-0.05065918,0.552246094,0.820800781,-1.892089844,-5.920410156,-3.295898438
611316,-0.047851563,0.561157227,0.845703125,-4.699707031,-6.286621094,-3.173828125
611343,-0.052612305,0.563354492,0.847900391,-7.629394531,-7.32421875,-3.051757813
611369,-0.061035156,0.537719727,0.854614258,-9.582519531,-7.568359375,-3.173828125
611395,-0.054443359,0.499389648,0.836547852,-6.652832031,-6.958007813,-3.540039063
611421,-0.051757813,0.513671875,0.844970703,-2.258300781,-6.103515625,-3.356933594
611447,-0.046508789,0.527709961,0.847412109,-0.854492188,-5.554199219,-3.479003906
611474,-0.045654297,0.524169922,0.84375,-1.098632813,-5.187988281,-3.295898438
611500,-0.044555664,0.526367188,0.838623047,-1.892089844,-4.8828125,-3.234863281
611526,-0.050048828,0.534912109,0.856323242,-3.967285156,-5.187988281,-3.112792969
611552,-0.057006836,0.551269531,0.871459961,-8.422851563,-5.615234375,-3.112792969
611578,-0.052490234,0.511962891,0.844360352,-10.80322266,-1.953125,-3.173828125
611605,-0.074584961,0.556396484,0.842895508,-3.601074219,-3.295898438,-3.845214844
611631,-0.099487305,0.691162109,0.913696289,-21.24023438,-7.995605469,-1.342773438
611657,-0.049804688,0.570922852,0.931640625,-63.90380859,-19.28710938,1.281738281
611683,-0.043212891,0.33984375,0.918579102,-72.81494141,-21.484375,1.953125
611709,-0.037475586,0.338867188,0.893432617,-36.80419922,-20.93505859,1.159667969
611735,-0.034179688,0.432983398,0.882080078,-17.51708984,-16.54052734,1.037597656
611761,-0.023681641,0.391357422,0.874511719,-13.73291016,-12.87841797,2.502441406
611788,0.000976563,0.381347656,0.889526367,-5.615234375,-8.422851563,2.990722656
611814,0.007446289,0.340454102,0.934326172,9.338378906,-5.493164063,5.004882813
611840,0.002441406,0.352172852,0.920776367,33.08105469,-1.281738281,6.469726563
611866,-0.010864258,0.378662109,0.917358398,72.63183594,4.516601563,10.25390625
611893,-0.038818359,0.602539063,0.863891602,96.61865234,5.004882813,14.34326172
611919,-0.027709961,0.723022461,0.831665039,83.49609375,3.234863281,17.82226563
611945,-0.035400391,0.681884766,0.843994141,55.54199219,-0.732421875,22.15576172
611971,-0.017578125,0.693359375,0.915405273,31.06689453,-4.943847656,22.15576172
611997,-0.054199219,0.676513672,0.873535156,3.662109375,-12.93945313,23.31542969
612023,-0.003051758,0.437255859,0.76940918,-26.67236328,-17.70019531,19.59228516
612050,0.022094727,0.369140625,0.793701172,5.859375,-16.17431641,17.02880859
612076,0.042602539,0.433959961,0.799804688,43.15185547,-9.216308594,10.86425781
612102,0.047729492,0.552246094,0.793457031,55.60302734,-4.516601563,7.8125
612128,0.062133789,0.633911133,0.726196289,38.02490234,-4.821777344,6.042480469
612154,0.06652832,0.626708984,0.696166992,5.859375,-5.187988281,3.295898438
612180,0.088745117,0.582641602,0.73425293,-7.568359375,-3.784179688,-0.610351563
612207,0.071289063,0.521484375,0.815795898,-8.911132813,-1.220703125,-5.798339844
612233,0.036621094,0.577514648,0.80859375,7.446289063,-1.525878906,-7.019042969
612259,0.020996094,0.623413086,0.798950195,15.25878906,-0.9765625,-5.676269531
612285,0.016967773,0.655517578,0.803344727,18.92089844,-2.136230469,-4.211425781
612312,0.036865234,0.614746094,0.779663086,26.30615234,-2.807617188,-2.624511719
612338,0.052734375,0.588012695,0.762573242,33.14208984,-2.9296875,-3.173828125
612364,0.064941406,0.569824219,0.718994141,40.40527344,-2.44140625,-6.713867188
612390,0.023925781,0.66015625,0.689086914,47.60742188,1.46484375,-11.23046875
612416,-0.015258789,0.74621582,0.725708008,45.95947266,2.990722656,-12.45117188
612442,-0.010131836,0.758789063,0.704589844,30.94482422,1.708984375,-10.80322266
612469,0.011474609,0.721313477,0.680541992,28.44238281,1.159667969,-7.141113281
612495,0.009887695,0.714477539,0.667236328,35.21728516,1.220703125,-5.615234375
612521,0.000366211,0.792602539,0.672119141,44.43359375,3.356933594,-5.676269531
612547,0.001953125,0.805786133,0.648071289,44.25048828,4.455566406,-6.103515625
612573,0.004882813,0.741088867,0.654052734,43.70117188,4.516601563,-5.187988281
612599,-0.002929688,0.631958008,0.661376953,73.66943359,3.051757813,-2.990722656
612626,-0.003173828,0.766357422,0.596191406,125,1.342773438,-5.615234375
612652,-0.021240234,0.932128906,0.542236328,138.4887695,0.793457031,-8.239746094
612678,-0.010620117,0.994873047,0.392822266,138.3666992,-0.366210938,-7.690429688
612704,-0.016723633,1.200195313,0.334594727,133.972168,5.737304688,-0.305175781
612730,-0.03503418,1.236572266,0.28125,109.4360352,6.408691406,6.958007813
612756,-0.007446289,1.156616211,0.224853516,74.95117188,6.34765625,19.47021484
612782,0.002563477,1.128173828,0.204345703,74.76806641,17.39501953,25.81787109
612809,-0.017089844,1.23059082,0.204589844,72.14355469,21.97265625,34.91210938
612835,-0.03527832,1.286499023,0.211303711,51.7578125,20.5078125,42.17529297
612861,0.017211914,1.168823242,0.205566406,18.5546875,13.30566406,52.79541016
612887,0.038696289,1.148193359,0.200927734,13.48876953,9.033203125,59.32617188
612913,0.040527344,1.249389648,0.213134766,2.563476563,5.676269531,64.14794922
612939,0.04675293,1.233642578,0.262329102,-26.67236328,-4.150390625,75.92773438
612966,0.109741211,1.161132813,0.258789063,-54.19921875,-16.11328125,85.02197266
612992,0.197509766,1.06640625,0.226318359,-69.58007813,-22.39990234,88.74511719
613018,0.241943359,1.027099609,0.203369141,-86.12060547,-24.29199219,90.08789063
613044,0.279296875,0.879516602,0.243041992,-101.5625,-27.46582031,87.64648438
613070,0.366333008,0.732910156,0.260620117,-98.26660156,-28.74755859,82.70263672
613096,0.448852539,0.74987793,0.213378906,-70.06835938,-21.24023438,71.77734375
613123,0.330932617,0.969970703,0.391723633,-40.16113281,13.36669922,45.34912109
613149,0.414916992,0.827758789,0.305541992,-68.11523438,-5.676269531,57.6171875
613175,0.463134766,0.656860352,0.328857422,-70.12939453,-1.647949219,55.23681641
613201,0.451293945,0.655151367,0.373901367,-55.60302734,1.708984375,51.14746094
613227,0.475219727,0.649536133,0.360351563,-57.6171875,0.915527344,45.8984375
613254,0.491943359,0.614135742,0.373168945,-59.26513672,1.525878906,38.02490234
613280,0.501342773,0.527709961,0.428955078,-50.10986328,-0.48828125,41.13769531
613306,0.512695313,0.536254883,0.458862305,-40.83251953,1.159667969,39.12353516
613332,0.509399414,0.549804688,0.495239258,-31.18896484,0.48828125,39.73388672
613358,0.536376953,0.524780273,0.523803711,-22.33886719,2.685546875,39.30664063
613385,0.548583984,0.509155273,0.573608398,-20.93505859,0.854492188,39.97802734
613411,0.562744141,0.50378418,0.606567383,-20.5078125,-3.90625,37.84179688
613437,0.590942383,0.475463867,0.583251953,-24.96337891,-8.056640625,35.94970703
613463,0.616699219,0.434448242,0.612915039,-19.47021484,-7.629394531,35.15625
613489,0.629760742,0.425537109,0.603271484,-6.286621094,-6.103515625,30.63964844
613516,0.595703125,0.517456055,0.596801758,-1.342773438,2.502441406,28.25927734
613542,0.651000977,0.426147461,0.547241211,-14.58740234,-3.662109375,25.63476563
613568,0.615600586,0.4453125,0.57434082,-3.845214844,7.629394531,22.03369141
613594,0.62097168,0.416015625,0.621704102,-3.967285156,6.408691406,20.44677734
613620,0.630249023,0.408325195,0.641235352,-0.732421875,8.605957031,20.32470703
613646,0.633056641,0.404663086,0.655029297,-4.39453125,7.019042969,18.18847656
613673,0.637817383,0.269287109,0.735473633,-15.50292969,0.915527344,10.55908203
613699,0.655883789,0.174926758,0.791259766,-4.455566406,-5.310058594,-0.366210938
613725,0.645751953,0.345214844,0.722167969,7.995605469,-6.591796875,-5.798339844
613751,0.6640625,0.45703125,0.627319336,2.990722656,-8.178710938,-7.751464844
613777,0.67980957,0.438110352,0.639892578,1.525878906,-4.211425781,-5.249023438
613803,0.675048828,0.456298828,0.661254883,3.845214844,-2.746582031,-2.685546875
613830,0.671142578,0.442260742,0.656005859,-1.586914063,-3.295898438,-0.305175781
613856,0.669921875,0.390014648,0.658325195,-3.356933594,-3.356933594,-0.061035156
613882,0.658935547,0.377197266,0.657348633,-0.610351563,-2.624511719,-0.732421875
613908,0.640991211,0.399536133,0.663452148,1.342773438,-2.502441406,-2.380371094
613935,0.64465332,0.405517578,0.653564453,0.122070313,-3.540039063,-3.356933594
613961,0.64453125,0.415893555,0.658325195,0.366210938,-3.356933594,-3.540039063
613987,0.643188477,0.412353516,0.681396484,2.014160156,-3.845214844,-2.502441406
614013,0.648681641,0.423461914,0.662475586,1.281738281,-5.187988281,-2.014160156
614039,0.654907227,0.420410156,0.663330078,0.122070313,-5.37109375,-1.831054688
614066,0.652709961,0.402954102,0.677246094,0.610351563,-4.638671875,-1.403808594
614092,0.654907227,0.398803711,0.675170898,0.915527344,-5.004882813,-1.586914063
614118,0.659545898,0.392211914,0.676025391,1.098632813,-5.187988281,-2.136230469
614144,0.661499023,0.404296875,0.672119141,1.159667969,-4.943847656,-2.44140625
614171,0.644165039,0.420654297,0.692749023,1.159667969,-4.760742188,-2.319335938
614197,0.647949219,0.40234375,0.686645508,-0.610351563,-5.859375,-2.014160156
614223,0.656494141,0.389282227,0.668212891,-0.48828125,-6.530761719,-2.563476563
614249,0.658935547,0.396240234,0.663085938,0.610351563,-5.310058594,-3.112792969
614275,0.653076172,0.401367188,0.661621094,1.46484375,-4.089355469,-3.051757813
614302,0.640258789,0.409912109,0.671020508,0.9765625,-4.455566406,-2.868652344
614328,0.64831543,0.389160156,0.672729492,-0.366210938,-5.737304688,-2.258300781
614354,0.647583008,0.395263672,0.672485352,1.037597656,-5.981445313,-2.563476563
614380,0.647705078,0.395507813,0.677856445,1.708984375,-6.408691406,-2.380371094
614407,0.650878906,0.405273438,0.667236328,2.258300781,-6.958007813,-1.953125
614433,0.666625977,0.397216797,0.659790039,0.549316406,-6.530761719,-1.708984375
614459,0.664916992,0.394897461,0.672973633,1.586914063,-5.798339844,-1.770019531
614485,0.655761719,0.405029297,0.695556641,2.990722656,-5.737304688,-2.075195313
614511,0.657714844,0.399047852,0.677612305,1.342773438,-6.591796875,-2.502441406
614538,0.661376953,0.407714844,0.670898438,1.525878906,-6.225585938,-2.746582031
614564,0.656005859,0.408813477,0.679443359,1.708984375,-5.676269531,-2.624511719
614590,0.657104492,0.402587891,0.67590332,0.9765625,-5.859375,-2.624511719
614616,0.655761719,0.39453125,0.673583984,0.244140625,-6.34765625,-2.9296875
614642,0.655639648,0.395996094,0.65637207,1.281738281,-6.408691406,-3.295898438
614669,0.650878906,0.40246582,0.670532227,0.854492188,-6.042480469,-2.807617188
614695,0.649414063,0.386962891,0.672729492,0.305175781,-6.286621094,-2.746582031
614721,0.659179688,0.376098633,0.669799805,1.770019531,-6.8359375,-3.540039063
614747,0.665283203,0.40612793,0.658447266,2.258300781,-6.530761719,-4.272460938
614774,0.663452148,0.40625,0.66784668,1.953125,-6.164550781,-3.845214844
614800,0.661010742,0.415405273,0.671508789,2.136230469,-5.615234375,-3.112792969
614826,0.665039063,0.389770508,0.668212891,1.037597656,-6.469726563,-2.624511719
614852,0.669799805,0.391967773,0.656982422,2.258300781,-5.249023438,-2.990722656
614878,0.662963867,0.394775391,0.662597656,1.953125,-5.126953125,-3.112792969
614905,0.665649414,0.403442383,0.661376953,3.356933594,-4.516601563,-3.173828125
614931,0.656860352,0.413696289,0.670043945,2.380371094,-4.333496094,-2.990722656
614957,0.65234375,0.40222168,0.685668945,1.953125,-4.943847656,-2.990722656
614983,0.665405273,0.407104492,0.680541992,2.075195313,-5.981445313,-3.112792969
615009,0.666015625,0.412109375,0.674316406,1.098632813,-5.981445313,-2.990722656
615035,0.66027832,0.405517578,0.674072266,0.854492188,-5.981445313,-2.868652344
615061,0.652587891,0.407226563,0.67199707,1.037597656,-5.798339844,-2.685546875
615088,0.657348633,0.400146484,0.669921875,0.48828125,-6.103515625,-2.807617188
615114,0.660644531,0.399414063,0.663330078,0,-5.920410156,-2.807617188
615140,0.657226563,0.402709961,0.668212891,1.281738281,-5.37109375,-2.868652344
615166,0.653808594,0.399780273,0.668701172,0.793457031,-5.554199219,-2.807617188
615192,0.658691406,0.390136719,0.662475586,0.610351563,-5.798339844,-3.112792969
615218,0.659423828,0.403686523,0.658691406,1.525878906,-5.859375,-3.295898438
615245,0.650268555,0.408569336,0.669799805,1.46484375,-5.554199219,-2.990722656
615271,0.653076172,0.394042969,0.672363281,0.244140625,-6.042480469,-2.807617188
615297,0.648193359,0.380004883,0.673339844,-0.366210938,-6.286621094,-3.90625
615323,0.640991211,0.383178711,0.678100586,-2.563476563,-7.080078125,-5.676269531
615349,0.640136719,0.368408203,0.677246094,-6.103515625,-7.995605469,-7.080078125
615376,0.631225586,0.367797852,0.697753906,-15.93017578,-9.582519531,-11.35253906
615402,0.663330078,0.299072266,0.687866211,-27.03857422,-14.03808594,-18.37158203
615428,0.671264648,0.224609375,0.681518555,-15.31982422,-14.28222656,-20.93505859
615454,0.635742188,0.414916992,0.672607422,9.948730469,-7.751464844,-24.84130859
615480,0.638061523,0.490844727,0.669067383,7.141113281,-9.155273438,-21.54541016
615507,0.656738281,0.49597168,0.667602539,5.065917969,-10.19287109,-17.27294922
615533,0.667358398,0.514160156,0.658935547,7.202148438,-9.887695313,-10.31494141
615559,0.667724609,0.519042969,0.643798828,4.272460938,-9.521484375,-3.112792969
615585,0.664306641,0.477783203,0.63684082,-1.159667969,-9.094238281,-0.183105469
615611,0.660888672,0.395019531,0.638183594,-4.760742188,-7.995605469,0.793457031
615638,0.640136719,0.34765625,0.637817383,-5.249023438,-6.34765625,-2.502441406
615664,0.616943359,0.320922852,0.645874023,-6.530761719,-5.004882813,-9.643554688
615690,0.592407227,0.274169922,0.655517578,-10.19287109,-4.699707031,-16.17431641
615716,0.57421875,0.208129883,0.642944336,-6.958007813,-4.39453125,-29.60205078
615743,0.566040039,0.235839844,0.611206055,-2.685546875,-3.845214844,-44.73876953
615769,0.546020508,0.279296875,0.571655273,-6.530761719,-1.037597656,-55.48095703
615795,0.520874023,0.291381836,0.541259766,-20.87402344,0.183105469,-69.27490234
615821,0.496459961,0.210571289,0.572143555,-4.8828125,8.117675781,-80.50537109
615847,0.471557617,0.319824219,0.591430664,17.70019531,16.23535156,-88.43994141
615874,0.410888672,0.471191406,0.534545898,24.71923828,24.29199219,-97.35107422
615900,0.332885742,0.603515625,0.571411133,27.64892578,31.67724609,-102.6611328
615926,0.340698242,0.524902344,0.599365234,32.16552734,36.01074219,-100.8911133
615952,0.301513672,0.647216797,0.616210938,43.21289063,38.02490234,-102.1118164
615978,0.218261719,0.786376953,0.666625977,36.62109375,41.32080078,-98.32763672
616005,0.226196289,0.813964844,0.672729492,24.90234375,36.01074219,-98.93798828
616031,0.196289063,0.771118164,0.666381836,19.53125,36.56005859,-100.2197266
616057,0.146850586,0.865844727,0.724975586,11.29150391,25.45166016,-89.29443359
616083,0.10949707,0.958740234,0.745483398,-6.958007813,22.33886719,-84.10644531
616109,0.115722656,0.856079102,0.70715332,-40.71044922,10.7421875,-72.69287109
616136,0.134399414,0.706298828,0.763793945,-33.02001953,7.263183594,-65.79589844
616162,0.091674805,0.771240234,0.831176758,-24.04785156,3.601074219,-59.75341797
616188,0.05847168,0.90222168,0.818359375,-36.49902344,-2.319335938,-52.79541016
616214,0.08972168,0.736450195,0.741210938,-51.94091797,-6.774902344,-47.05810547
616240,0.099975586,0.559082031,0.808227539,-48.33984375,-6.652832031,-45.04394531
616267,0.063476563,0.805175781,0.908447266,-23.62060547,-3.784179688,-37.47558594
616293,0.077758789,0.812988281,0.98034668,-40.95458984,-5.615234375,-28.56445313
616319,0.081298828,0.632324219,0.969970703,-49.62158203,-3.967285156,-23.49853516
616345,0.0234375,0.56237793,0.887695313,-22.21679688,5.615234375,-20.38574219
616371,-0.033569336,0.665527344,0.791137695,8.605957031,18.61572266,-14.83154297
616397,-0.06237793,0.655883789,0.793579102,5.187988281,19.53125,-12.32910156
616424,-0.074462891,0.607543945,0.781494141,3.234863281,16.47949219,-10.37597656
616450,-0.086425781,0.586425781,0.821899414,4.699707031,13.12255859,-7.446289063
616476,-0.080688477,0.577026367,0.812866211,7.507324219,14.89257813,-6.713867188
616502,-0.090942383,0.577514648,0.826049805,7.019042969,16.78466797,-6.530761719
616528,-0.116821289,0.602905273,0.840087891,-0.671386719,15.80810547,-6.530761719
616554,-0.130126953,0.537353516,0.890991211,-6.286621094,11.96289063,-3.479003906
616581,-0.131347656,0.547241211,0.894042969,-5.187988281,6.774902344,-0.48828125
616607,-0.138305664,0.528320313,0.883789063,11.71875,2.44140625,1.708984375
616633,-0.171508789,0.696289063,0.823974609,41.93115234,1.159667969,-2.075195313
616659,-0.179443359,0.765625,0.793457031,31.98242188,-2.380371094,-1.46484375
616686,-0.15222168,0.700317383,0.767578125,8.483886719,-8.911132813,0.732421875
616712,-0.13659668,0.640625,0.766113281,5.859375,-9.643554688,2.014160156
616738,-0.120849609,0.653686523,0.756958008,6.34765625,-10.13183594,0.915527344
616764,-0.113891602,0.634399414,0.758300781,0.671386719,-10.55908203,-1.037597656
616790,-0.109375,0.640380859,0.764282227,-1.708984375,-10.49804688,-1.403808594
616817,-0.108154297,0.62890625,0.779174805,-2.685546875,-10.07080078,-0.671386719
616843,-0.095336914,0.609008789,0.7890625,-2.990722656,-10.68115234,-0.305175781
616869,-0.09765625,0.628051758,0.793823242,0.305175781,-11.23046875,0.183105469
616895,-0.096191406,0.625366211,0.785400391,0.549316406,-11.90185547,0.305175781
616921,-0.097412109,0.636230469,0.767700195,-1.037597656,-12.75634766,-0.48828125
616947,-0.083740234,0.602172852,0.759521484,-2.502441406,-11.90185547,-1.037597656
616974,-0.08190918,0.605834961,0.760009766,-0.671386719,-10.98632813,-2.136230469
617000,-0.08203125,0.624389648,0.765625,1.281738281,-9.094238281,-2.746582031
617026,-0.077270508,0.630859375,0.768310547,2.075195313,-7.873535156,-2.258300781
617052,-0.080322266,0.63269043,0.766967773,1.586914063,-7.629394531,-1.770019531
617078,-0.073974609,0.636352539,0.772338867,1.342773438,-6.652832031,-1.708984375
617105,-0.077514648,0.633178711,0.780639648,-1.098632813,-6.286621094,-1.953125
617131,-0.075561523,0.620727539,0.78125,-3.295898438,-6.103515625,-1.708984375
617157,-0.072509766,0.599731445,0.784301758,-4.516601563,-5.859375,-1.525878906
617183,-0.069580078,0.58972168,0.785888672,-1.281738281,-5.126953125,-1.525878906
617210,-0.075317383,0.610839844,0.786499023,1.403808594,-4.39453125,-2.502441406
617236,-0.084472656,0.62097168,0.788574219,1.281738281,-4.638671875,-2.807617188
617262,-0.088500977,0.628051758,0.791381836,0.549316406,-5.249023438,-2.258300781
617288,-0.087524414,0.608764648,0.787841797,0.305175781,-5.676269531,-1.953125
617314,-0.090942383,0.621948242,0.785888672,0.793457031,-5.737304688,-2.685546875
617340,-0.082275391,0.619628906,0.78503418,-0.427246094,-6.103515625,-3.173828125
617367,-0.078369141,0.622558594,0.794677734,-0.854492188,-6.103515625,-3.41796875
617393,-0.076660156,0.628662109,0.802246094,-1.525878906,-6.042480469,-2.868652344
617419,-0.083374023,0.62512207,0.823242188,-3.051757813,-6.713867188,-1.281738281
617445,-0.106323242,0.638671875,0.899536133,-5.981445313,-9.704589844,0.549316406
617472,-0.100463867,0.633666992,0.921630859,-10.25390625,-13.18359375,1.525878906
617498,-0.116577148,0.682128906,0.929443359,-18.49365234,-16.17431641,0.183105469
617524,-0.084838867,0.574951172,0.855712891,-40.10009766,-31.06689453,1.770019531
617550,-0.011474609,0.502807617,0.860473633,-41.56494141,-38.33007813,0
617576,0.0234375,0.513793945,0.892944336,-34.05761719,-40.89355469,-4.272460938
617602,0.000488281,0.61328125,0.837646484,-36.49902344,-40.16113281,-7.995605469
617629,0.02331543,0.575805664,0.793823242,-59.63134766,-38.81835938,-7.8125
617655,0.061767578,0.514160156,0.792724609,-68.05419922,-36.31591797,-7.690429688
617681,0.09777832,0.366088867,0.860473633,-88.80615234,-32.34863281,-8.483886719
617708,0.075683594,0.280639648,0.895996094,-60.18066406,-21.97265625,-8.117675781
617734,0.041870117,0.324462891,0.831420898,-28.80859375,-14.03808594,-5.432128906
617760,0.04309082,0.273681641,0.878051758,21.36230469,3.601074219,0.061035156
617786,-0.01171875,0.224487305,0.923950195,104.1870117,16.29638672,4.39453125
617812,-0.050170898,0.48046875,0.882324219,155.456543,18.5546875,8.911132813
617838,-0.049926758,0.719970703,0.793701172,186.5844727,13.54980469,18.49365234
617864,-0.052490234,0.854125977,0.737792969,148.1323242,6.774902344,21.36230469
617891,-0.015991211,0.827148438,0.807128906,112.8540039,1.342773438,22.76611328
617917,0.028442383,0.569580078,0.842285156,94.23828125,-6.469726563,24.71923828
617943,0.071655273,0.369628906,0.72277832,148.9868164,-10.86425781,20.81298828
617969,0.081542969,0.503051758,0.522216797,204.4067383,-10.62011719,13.48876953
617995,0.091186523,0.965332031,0.263671875,220.6420898,-3.662109375,4.699707031
618021,0.082641602,1.123168945,0.204589844,162.1704102,-3.479003906,1.098632813
618048,0.110107422,1.166381836,0.229125977,130.859375,-2.990722656,7.934570313
618074,0.121826172,1.193969727,0.185180664,97.04589844,3.540039063,19.16503906
618100,0.111938477,1.215332031,0.11706543,85.26611328,18.61572266,29.11376953
618126,0.116577148,1.267578125,0.128051758,71.89941406,25.63476563,33.93554688
618152,0.127197266,1.236694336,0.150512695,42.84667969,29.17480469,42.66357422
618178,0.155029297,1.194702148,0.165771484,27.52685547,31.18896484,51.63574219
618205,0.181640625,1.198852539,0.166870117,19.71435547,30.88378906,57.00683594
618231,0.208251953,1.1484375,0.211791992,1.708984375,27.95410156,63.41552734
618257,0.228881836,1.119750977,0.212768555,-19.04296875,21.85058594,68.359375
618283,0.263183594,1.061279297,0.172729492,-31.06689453,17.578125,71.65527344
618309,0.319702148,1.027832031,0.222167969,-36.1328125,18.24951172,72.81494141
618335,0.342407227,0.950195313,0.235595703,-37.17041016,16.35742188,74.70703125
618361,0.357543945,0.94152832,0.210327148,-42.84667969,13.54980469,75.1953125
618388,0.392211914,0.922363281,0.251831055,-51.69677734,10.7421875,76.66015625
618414,0.409912109,0.845336914,0.252075195,-55.78613281,10.07080078,76.04980469
618440,0.431884766,0.779418945,0.289428711,-56.27441406,10.25390625,73.2421875
618466,0.478637695,0.623168945,0.246459961,-31.25,27.09960938,60.85205078
618492,0.482910156,0.681640625,0.271362305,-33.08105469,20.32470703,45.8984375
618519,0.446289063,0.763549805,0.310180664,-21.11816406,29.54101563,38.02490234
618545,0.446289063,0.673217773,0.363769531,-25.57373047,26.97753906,40.10009766
618571,0.467285156,0.674804688,0.335083008,-29.35791016,19.22607422,32.77587891
618597,0.464355469,0.678466797,0.367431641,-33.56933594,12.20703125,32.16552734
618623,0.464599609,0.62487793,0.440795898,-29.78515625,10.92529297,31.98242188
618649,0.483886719,0.610839844,0.437011719,-30.09033203,4.333496094,26.79443359
618675,0.508544922,0.593994141,0.414916992,-25.69580078,10.49804688,17.33398438
618702,0.510864258,0.579833984,0.455078125,-16.96777344,9.521484375,14.22119141
618728,0.526000977,0.573486328,0.461791992,-7.141113281,12.45117188,9.033203125
618753,0.519042969,0.582397461,0.47265625,-5.981445313,10.98632813,2.014160156
618780,0.507324219,0.627319336,0.499755859,-3.845214844,10.68115234,0.427246094
618807,0.517578125,0.651245117,0.530517578,-5.065917969,8.666992188,0
618833,0.526245117,0.634643555,0.551635742,-4.089355469,6.469726563,-0.183105469
618859,0.530029297,0.6640625,0.532470703,-4.577636719,4.699707031,-0.610351563
618885,0.541381836,0.638671875,0.569335938,-7.934570313,2.44140625,-0.183105469
618911,0.555419922,0.599975586,0.579711914,-4.760742188,0.671386719,-1.342773438
618937,0.545532227,0.657958984,0.572143555,-1.708984375,0.854492188,-2.014160156
618963,0.557617188,0.630249023,0.575561523,-5.187988281,-1.953125,-2.197265625
618989,0.555297852,0.637695313,0.550170898,-3.356933594,-1.46484375,-2.685546875
619015,0.544921875,0.635742188,0.58215332,-2.258300781,-1.403808594,-2.380371094
619041,0.542114258,0.645751953,0.584594727,-1.46484375,-2.624511719,-1.770019531
619067,0.543334961,0.625610352,0.57043457,-4.211425781,-4.699707031,-2.380371094
619093,0.548339844,0.600463867,0.583740234,-2.685546875,-5.249023438,-2.746582031
619119,0.544677734,0.630004883,0.558227539,0.183105469,-5.37109375,-3.540039063
619145,0.540771484,0.631958008,0.55090332,-0.244140625,-5.920410156,-3.479003906
619172,0.545654297,0.659790039,0.558227539,0.671386719,-5.065917969,-2.685546875
619198,0.55090332,0.642089844,0.567260742,-1.159667969,-5.249023438,-1.220703125
619224,0.564331055,0.61706543,0.562133789,-2.075195313,-6.042480469,-1.46484375
619250,0.555908203,0.611450195,0.573120117,-1.220703125,-6.408691406,-1.953125
619276,0.549194336,0.623901367,0.580932617,1.098632813,-5.615234375,-3.051757813
619302,0.552246094,0.642944336,0.57043457,1.586914063,-4.943847656,-3.90625
619328,0.550415039,0.634887695,0.585205078,0.610351563,-4.8828125,-3.845214844
619354,0.547119141,0.63659668,0.584472656,0.854492188,-5.065917969,-3.784179688
619381,0.544189453,0.637573242,0.577636719,1.037597656,-5.859375,-3.295898438
619407,0.551269531,0.634033203,0.57409668,0.671386719,-6.225585938,-3.234863281
619433,0.54284668,0.631591797,0.579833984,0,-6.225585938,-3.662109375
619459,0.541992188,0.605834961,0.577636719,-1.770019531,-7.32421875,-4.333496094
619485,0.541503906,0.597167969,0.589111328,-0.305175781,-7.751464844,-5.432128906
619511,0.537841797,0.643432617,0.584594727,-3.356933594,-9.216308594,-7.568359375
619537,0.540893555,0.602661133,0.615112305,-12.02392578,-12.57324219,-9.948730469
619563,0.546386719,0.571533203,0.6171875,-10.92529297,-14.16015625,-11.96289063
619590,0.504760742,0.710205078,0.577636719,-15.19775391,-15.13671875,-16.35742188
619616,0.522460938,0.668334961,0.656005859,-56.45751953,-22.94921875,-20.44677734
619642,0.571289063,0.424438477,0.644042969,-65.18554688,-27.22167969,-21.17919922
619668,0.531494141,0.562744141,0.575195313,-28.25927734,-17.02880859,-26.30615234
619694,0.486694336,0.754516602,0.583129883,-60.05859375,-14.09912109,-30.39550781
619720,0.510253906,0.569458008,0.654052734,-93.93310547,-19.71435547,-31.49414063
619746,0.583984375,0.231567383,0.599365234,-59.38720703,-16.84570313,-31.25
619772,0.517089844,0.526977539,0.567260742,-20.62988281,1.770019531,-40.16113281
619799,0.468505859,0.689697266,0.596069336,-44.79980469,5.065917969,-46.02050781
619825,0.458129883,0.563720703,0.616821289,-99.54833984,1.159667969,-50.65917969
619851,0.497192383,0.266235352,0.707885742,-96.37451172,8.178710938,-49.56054688
619877,0.468383789,0.26965332,0.747314453,-68.23730469,19.47021484,-50.53710938
619903,0.357666016,0.488769531,0.7734375,-53.10058594,28.01513672,-58.89892578
619929,0.322021484,0.559326172,0.740112305,-83.67919922,23.25439453,-62.25585938
619955,0.364379883,0.397338867,0.755126953,-100.3417969,20.99609375,-59.69238281
619981,0.339111328,0.281616211,0.841674805,-92.83447266,25.81787109,-54.19921875
620008,0.280029297,0.359008789,0.869384766,-96.86279297,27.95410156,-57.43408203
620034,0.243041992,0.363769531,0.862548828,-114.2578125,26.67236328,-63.23242188
620060,0.260864258,0.20300293,0.861450195,-131.1035156,21.97265625,-61.76757813
620086,0.256225586,0.100219727,0.848754883,-123.5351563,25.45166016,-59.75341797
620112,0.215698242,0.026489258,0.889648438,-108.6425781,30.94482422,-55.23681641
620138,0.178344727,-0.005493164,0.932617188,-73.18115234,39.67285156,-57.06787109
620165,0.142700195,0.064941406,0.950439453,-36.19384766,43.02978516,-53.03955078
620191,0.113037109,0.178710938,0.975830078,-34.72900391,35.76660156,-49.43847656
620217,0.092041016,0.08972168,1.004882813,-47.54638672,38.26904297,-47.11914063
620243,0.061767578,0.007324219,1.087158203,-25.51269531,32.59277344,-37.71972656
620269,0.075805664,0.0078125,1.078369141,0.549316406,27.95410156,-36.1328125
620296,0.055664063,0.038452148,1.069824219,17.45605469,25.26855469,-36.37695313
620322,0.032348633,0.119995117,1.118774414,33.32519531,18.73779297,-35.40039063
620348,0.037963867,0.138183594,1.10534668,28.3203125,8.7890625,-33.93554688
620374,0.051269531,0.104125977,1.063110352,24.47509766,3.173828125,-33.44726563
620400,0.044799805,0.087768555,1.073242188,31.00585938,-2.014160156,-34.48486328
620426,0.05090332,0.151977539,1.069824219,39.55078125,-5.615234375,-33.69140625
620452,0.059326172,0.128417969,1.041381836,42.96875,-6.530761719,-32.89794922
620479,0.048217773,0.168579102,1.020385742,48.21777344,-9.643554688,-32.65380859
620505,0.102539063,0.166992188,1.026977539,48.95019531,-14.09912109,-30.39550781
620531,0.139648438,0.150146484,1.037353516,48.27880859,-13.91601563,-30.45654297
620557,0.125,0.141601563,1.138549805,47.18017578,-2.136230469,-28.50341797
620583,0.062866211,0.265991211,1.142456055,41.38183594,11.23046875,-23.68164063
620609,0.01184082,0.422851563,1.063598633,25.20751953,10.7421875,-16.84570313
620635,0.018676758,0.323242188,0.959838867,-10.7421875,1.403808594,-12.39013672
620662,0.064208984,0.270629883,0.945678711,-3.234863281,-3.356933594,-10.86425781
620688,0.032348633,0.283447266,0.968994141,11.29150391,-2.014160156,-7.507324219
620714,0.005493164,0.315429688,0.998046875,18.18847656,-0.305175781,-2.807617188
620741,-0.009277344,0.317382813,0.984008789,9.094238281,-1.281738281,0.854492188
620767,-0.005371094,0.280395508,0.985839844,1.708984375,-2.563476563,1.586914063
620793,-0.001586914,0.249267578,0.981811523,-1.831054688,-4.8828125,-0.244140625
620819,0.006347656,0.239013672,0.969238281,-0.183105469,-6.34765625,-2.075195313
620845,0.004882813,0.255249023,0.972290039,1.46484375,-6.896972656,-3.173828125
620871,0.005004883,0.25793457,0.973632813,2.136230469,-7.873535156,-3.90625
620898,0.009887695,0.257568359,0.95703125,1.403808594,-8.666992188,-4.455566406
620924,0.018188477,0.263061523,0.944946289,0.549316406,-8.7890625,-4.760742188
620950,0.023925781,0.261474609,0.942260742,-0.793457031,-7.629394531,-4.8828125
620976,0.024291992,0.278686523,0.947143555,-1.708984375,-6.8359375,-5.004882813
621002,0.015380859,0.321899414,0.930908203,-2.502441406,-7.507324219,-3.356933594
621029,0.007568359,0.287597656,0.980957031,-10.7421875,-9.27734375,-2.807617188
621054,0.020019531,0.236328125,0.993530273,-19.10400391,-13.12255859,-2.380371094
621081,0.01574707,0.251342773,0.987915039,-18.85986328,-14.09912109,-2.075195313
621107,0.031860352,0.211669922,0.959106445,-11.16943359,-12.87841797,-1.953125
621133,0.050537109,0.21496582,0.916381836,3.967285156,-7.263183594,0.183105469
621159,0.064575195,0.151245117,0.926025391,25.75683594,1.159667969,0.915527344
621185,0.055786133,0.198242188,0.9609375,52.97851563,8.117675781,1.708984375
621211,0.029052734,0.310424805,0.97277832,91.97998047,14.34326172,3.90625
621238,0.027709961,0.290649414,0.95715332,120.4833984,15.07568359,7.690429688
621264,0.013427734,0.365478516,0.928588867,136.8408203,12.26806641,7.690429688
621290,-0.011474609,0.512329102,0.907714844,138.5498047,9.826660156,6.408691406
621316,-0.024047852,0.470947266,0.885253906,129.6386719,2.563476563,7.202148438
621342,0.017578125,0.426147461,0.763916016,133.0566406,-1.586914063,7.507324219
621368,-0.023803711,0.61315918,0.662231445,156.6162109,-0.793457031,6.469726563
621395,0.016479492,0.758544922,0.672973633,168.4570313,-1.281738281,-0.122070313
621421,0.002929688,0.757568359,0.640014648,163.5131836,0,-3.601074219
621447,-0.00769043,0.831787109,0.544799805,154.0527344,-0.915527344,-5.493164063
621473,-0.011474609,0.84753418,0.419433594,127.2583008,-10.80322266,-7.080078125
621499,-0.009887695,0.950195313,0.410888672,117.4316406,-11.65771484,-5.676269531
621525,-0.013183594,0.914916992,0.310058594,121.4599609,-2.014160156,-11.84082031
621551,-0.020141602,0.821777344,0.258178711,104.0039063,8.850097656,-6.958007813
621577,-0.012695313,1.013183594,0.205444336,125.0610352,14.58740234,-18.73779297
621604,-0.028808594,1.134765625,0.039672852,101.3793945,19.04296875,-6.164550781
621630,-0.061523438,1.15246582,0.036743164,68.42041016,20.99609375,-10.43701172
621656,-0.047119141,1.144042969,0.015625,48.27880859,20.56884766,-8.178710938
621682,-0.067382813,1.209960938,-0.024902344,37.90283203,28.80859375,-3.051757813
621708,-0.053710938,1.206176758,-0.024169922,24.65820313,36.98730469,6.652832031
621734,-0.033447266,1.161010742,0.0078125,12.93945313,41.07666016,13.12255859
621760,-0.053710938,1.20300293,0.034912109,15.56396484,47.97363281,23.01025391
621787,-0.062255859,1.20690918,0.052001953,13.54980469,51.81884766,31.67724609
621813,-0.056884766,1.208862305,0.079223633,8.911132813,52.67333984,37.84179688
621839,-0.039672852,1.193725586,0.134399414,10.43701172,51.69677734,47.11914063
621865,-0.009155273,1.113525391,0.151733398,3.051757813,45.59326172,53.40576172
621891,0.017333984,1.137573242,0.147460938,1.708984375,42.41943359,55.84716797
621918,0.057983398,1.110229492,0.154052734,-6.469726563,35.94970703,59.87548828
621944,0.103515625,1.036865234,0.18762207,-20.32470703,27.64892578,62.98828125
621970,0.11706543,1.039550781,0.20324707,-26.18408203,22.03369141,64.63623047
621996,0.174560547,1.053710938,0.174316406,-26.61132813,19.10400391,63.96484375
622022,0.218017578,0.979492188,0.163696289,-27.46582031,20.20263672,62.56103516
622049,0.230712891,0.97277832,0.177612305,-29.296875,18.67675781,60.79101563
622075,0.246826172,0.99987793,0.212280273,-38.87939453,14.28222656,62.37792969
622101,0.307861328,0.908569336,0.201538086,-50.17089844,7.995605469,61.88964844
622127,0.317138672,0.818359375,0.233886719,-45.71533203,11.10839844,50.84228516
622153,0.340454102,0.856323242,0.262207031,-60.60791016,-2.502441406,56.640625
622179,0.330688477,0.982666016,0.298095703,-47.60742188,6.286621094,47.97363281
622206,0.395385742,0.810791016,0.193725586,-57.49511719,-2.685546875,55.11474609
622232,0.432495117,0.526367188,0.262451172,-28.38134766,20.81298828,37.84179688
622258,0.427734375,0.714477539,0.258544922,-44.06738281,4.577636719,24.90234375
622284,0.447631836,0.729980469,0.291625977,-32.95898438,14.22119141,21.05712891
622310,0.441162109,0.561401367,0.264160156,-39.30664063,10.98632813,29.60205078
622336,0.493041992,0.63659668,0.275268555,-38.0859375,3.540039063,26.24511719
622363,0.454467773,0.720947266,0.398803711,-32.16552734,3.540039063,18.85986328
622389,0.464477539,0.694458008,0.405517578,-29.54101563,2.563476563,22.33886719
622415,0.459228516,0.693237305,0.424804688,-25.32958984,2.746582031,19.22607422
622441,0.474853516,0.690795898,0.427612305,-29.96826172,-3.784179688,18.92089844
622467,0.473754883,0.650268555,0.459472656,-31.67724609,-6.958007813,19.16503906
622494,0.498046875,0.602661133,0.472045898,-30.57861328,-9.887695313,15.38085938
622520,0.52722168,0.546508789,0.491699219,-19.47021484,-7.507324219,5.859375
622546,0.522338867,0.561279297,0.516967773,-9.826660156,-5.310058594,-0.732421875
622572,0.499755859,0.698608398,0.516967773,-0.305175781,-3.234863281,-6.713867188
622599,0.52355957,0.720214844,0.509643555,-4.577636719,-6.34765625,-5.249023438
622625,0.540649414,0.736083984,0.519042969,-4.272460938,-5.37109375,-4.821777344
622651,0.537231445,0.755615234,0.560302734,-5.737304688,-4.455566406,-3.356933594
622677,0.545166016,0.717651367,0.56652832,-11.10839844,-7.019042969,-2.807617188
622703,0.557861328,0.706176758,0.529052734,-11.90185547,-7.8125,-3.234863281
622730,0.575683594,0.688232422,0.520874023,-13.85498047,-5.187988281,-4.211425781
622756,0.57800293,0.697143555,0.520385742,-10.7421875,1.586914063,-6.225585938
622782,0.559692383,0.697631836,0.530883789,-10.07080078,5.981445313,-7.141113281
622809,0.531005859,0.664672852,0.560913086,-11.04736328,6.103515625,-7.446289063
622835,0.516235352,0.666015625,0.560791016,-8.7890625,5.920410156,-8.361816406
622861,0.497558594,0.653320313,0.559082031,-8.361816406,3.90625,-7.934570313
622887,0.478881836,0.712890625,0.571655273,-9.338378906,1.098632813,-6.225585938
622914,0.491577148,0.626342773,0.557495117,-19.34814453,-7.8125,-3.112792969
622940,0.489135742,0.636962891,0.569580078,-11.35253906,-5.126953125,-5.615234375
622966,0.489257813,0.626464844,0.577148438,-5.37109375,-3.540039063,-4.760742188
622992,0.484985352,0.649536133,0.594848633,1.403808594,-2.563476563,-3.845214844
623018,0.494262695,0.647094727,0.588012695,-2.807617188,-7.629394531,-3.784179688
623045,0.509643555,0.639160156,0.572631836,-4.699707031,-9.094238281,-3.41796875
623071,0.521606445,0.637329102,0.569580078,-1.892089844,-6.774902344,-2.807617188
623097,0.518188477,0.624633789,0.595336914,-0.9765625,-6.042480469,-2.746582031
623123,0.508544922,0.648071289,0.610717773,0.854492188,-6.408691406,-3.295898438
623150,0.516357422,0.645507813,0.613647461,-0.305175781,-7.995605469,-2.807617188
623176,0.51953125,0.658691406,0.595947266,1.159667969,-7.446289063,-3.051757813
623202,0.516601563,0.658447266,0.593261719,0.671386719,-6.958007813,-3.112792969
623229,0.513793945,0.655273438,0.59375,-0.122070313,-6.8359375,-3.295898438
623255,0.515258789,0.64831543,0.587524414,-0.610351563,-6.958007813,-3.356933594
623281,0.514038086,0.643554688,0.592041016,-0.9765625,-6.774902344,-4.028320313
623307,0.515625,0.641845703,0.592651367,-1.281738281,-6.652832031,-4.455566406
623333,0.512573242,0.662353516,0.596557617,-0.549316406,-6.042480469,-5.249023438
623360,0.514282227,0.67175293,0.608398438,-5.126953125,-5.920410156,-5.737304688
623386,0.513427734,0.660644531,0.614379883,-8.239746094,-6.164550781,-6.34765625
623412,0.521728516,0.659790039,0.616210938,-6.225585938,-5.493164063,-6.713867188
623438,0.500488281,0.674072266,0.618408203,-8.239746094,-5.310058594,-7.080078125
623464,0.49609375,0.693725586,0.606201172,-13.24462891,-6.042480469,-7.934570313
623491,0.515380859,0.611938477,0.619384766,-22.27783203,-7.629394531,-7.690429688
623517,0.493041992,0.666259766,0.583618164,-14.77050781,-3.967285156,-8.483886719
623543,0.483398438,0.713378906,0.598510742,-23.19335938,-2.685546875,-9.948730469
623569,0.522583008,0.506958008,0.666748047,-40.58837891,-7.8125,-7.141113281
623595,0.513183594,0.536254883,0.62121582,-7.934570313,-2.624511719,-7.629394531
623621,0.468505859,0.683959961,0.617797852,-5.615234375,0.48828125,-10.25390625
623648,0.458496094,0.640625,0.682006836,-44.18945313,-4.516601563,-11.10839844
623674,0.506835938,0.401123047,0.688964844,-55.78613281,-13.24462891,-12.63427734
623700,0.501464844,0.433349609,0.660888672,-37.23144531,-9.216308594,-13.73291016
623726,0.444213867,0.55859375,0.719238281,-40.83251953,-4.150390625,-18.12744141
623752,0.47265625,0.366821289,0.742919922,-50.04882813,-13.48876953,-20.26367188
623779,0.478027344,0.357421875,0.705566406,-38.94042969,-12.6953125,-24.84130859
623805,0.411010742,0.538696289,0.686279297,-47.8515625,-9.887695313,-33.14208984
623831,0.406982422,0.487304688,0.686401367,-82.64160156,-17.02880859,-37.23144531
623857,0.456054688,0.326660156,0.69934082,-87.52441406,-19.16503906,-38.69628906
623883,0.448608398,0.239746094,0.709960938,-56.76269531,-8.728027344,-42.84667969
623910,0.370361328,0.446533203,0.742431641,-43.57910156,1.953125,-52.30712891
623936,0.35144043,0.56628418,0.716186523,-77.08740234,3.234863281,-57.86132813
623962,0.400268555,0.370239258,0.677612305,-89.05029297,3.051757813,-55.78613281
623988,0.414306641,0.196411133,0.740966797,-70.49560547,16.41845703,-50.78125
624014,0.346923828,0.241699219,0.797363281,-49.01123047,27.22167969,-61.15722656
624040,0.272216797,0.42565918,0.768554688,-58.41064453,28.44238281,-64.39208984
624067,0.3046875,0.201538086,0.778442383,-61.76757813,33.87451172,-65.06347656
624093,0.292358398,0.196411133,0.856567383,-30.33447266,39.79492188,-64.02587891
624119,0.221191406,0.307006836,0.879150391,-26.79443359,44.73876953,-60.91308594
624145,0.206420898,0.26953125,0.824951172,-39.0625,47.18017578,-68.78662109
624171,0.181640625,0.15222168,0.91418457,-31.86035156,50.04882813,-68.84765625
624198,0.138793945,0.156616211,0.951904297,-23.01025391,47.54638672,-63.96484375
624224,0.074584961,0.210327148,1.009399414,8.605957031,46.875,-64.94140625
624250,0.00378418,0.388549805,1.113769531,12.02392578,40.52734375,-65.18554688
624276,0.014160156,0.364868164,1.07800293,-1.403808594,33.44726563,-63.53759766
624302,-0.000976563,0.261230469,1.10168457,13.91601563,24.90234375,-59.08203125
624328,-0.016723633,0.434082031,1.120361328,48.76708984,17.02880859,-51.45263672
624354,-0.049072266,0.565063477,1.178588867,43.64013672,11.65771484,-45.71533203
624380,-0.040649414,0.529785156,1.137451172,6.469726563,-1.46484375,-41.62597656
624407,-0.005493164,0.407592773,1.051025391,-15.25878906,-12.81738281,-36.49902344
624433,0.021728516,0.374633789,1.067016602,-9.948730469,-17.08984375,-29.11376953
624459,0.021850586,0.34753418,1.140869141,8.972167969,-11.71875,-20.87402344
624485,-0.004638672,0.38293457,1.131103516,17.51708984,-4.699707031,-15.13671875
624511,-0.022338867,0.363647461,1.106445313,11.47460938,-1.586914063,-11.77978516
624537,-0.037231445,0.367553711,1.002075195,-0.9765625,-2.9296875,-9.094238281
624564,-0.029663086,0.341552734,0.932128906,-1.525878906,-5.065917969,-6.530761719
624590,-0.016479492,0.348388672,0.874145508,3.356933594,-6.34765625,-4.943847656
624616,-0.014404297,0.33984375,0.872070313,6.042480469,-6.958007813,-4.211425781
624642,-0.0078125,0.287353516,0.884033203,4.211425781,-6.958007813,-5.310058594
624669,-0.010131836,0.286987305,0.885498047,5.798339844,-4.089355469,-6.530761719
624695,-0.028320313,0.311645508,0.934082031,5.249023438,0.915527344,-8.361816406
624721,-0.142822266,0.44543457,1.088012695,3.967285156,6.591796875,-9.765625
624747,-0.032958984,0.325317383,0.944702148,1.281738281,4.455566406,-9.887695313
624773,-0.054931641,0.395874023,0.955200195,-3.234863281,2.563476563,-4.760742188
624800,-0.060180664,0.376464844,0.996948242,-1.892089844,-1.647949219,-1.647949219
624826,-0.062866211,0.376098633,0.999755859,0.854492188,-6.225585938,0.9765625
624852,-0.021118164,0.311279297,0.869262695,5.187988281,-7.507324219,2.746582031
624878,0.08190918,0.11328125,0.688110352,57.6171875,4.333496094,5.432128906
624904,-0.024902344,0.275024414,0.9375,129.1503906,13.91601563,6.652832031
624930,-0.120605469,0.530639648,1.049926758,126.8310547,13.18359375,-0.122070313
624957,-0.135253906,0.610595703,1.006469727,67.32177734,3.90625,-7.568359375
624983,-0.12121582,0.502197266,0.9140625,7.751464844,-7.385253906,-6.225585938
625009,-0.060180664,0.458496094,0.806518555,7.019042969,-13.85498047,-3.540039063
625035,-0.108276367,0.583251953,0.813110352,12.81738281,-4.150390625,-6.164550781
625061,-0.126342773,0.598388672,0.925170898,-10.92529297,-11.47460938,-7.751464844
625087,-0.103881836,0.550170898,0.924438477,-22.15576172,-16.41845703,-6.164550781
625114,-0.027709961,0.405517578,0.802490234,-14.77050781,-17.578125,-2.746582031
625140,-0.047363281,0.567016602,0.777587891,1.647949219,-11.16943359,-3.723144531
625166,-0.061523438,0.564819336,0.869995117,-4.39453125,-8.666992188,-3.051757813
625192,-0.053466797,0.491333008,0.915649414,-11.23046875,-12.75634766,-1.098632813
625218,-0.029907227,0.453369141,0.835693359,-2.624511719,-10.98632813,0.671386719
625245,-0.038696289,0.530395508,0.815551758,2.075195313,-8.728027344,-0.427246094
625271,-0.055908203,0.520141602,0.907470703,-5.187988281,-8.911132813,0.061035156
625297,-0.064697266,0.528686523,0.924194336,-18.5546875,-13.18359375,0.122070313
625323,-0.071655273,0.549072266,0.941162109,-30.39550781,-15.86914063,0.366210938
625349,-0.038574219,0.493164063,0.923339844,-54.80957031,-21.24023438,-0.427246094
625376,-0.024536133,0.448120117,0.916625977,-67.01660156,-25.69580078,-1.46484375
625402,-0.011962891,0.290283203,0.918579102,-59.14306641,-26.42822266,0.244140625
625428,0.012084961,0.316162109,0.906005859,-18.5546875,-23.25439453,0.427246094
625454,0.01184082,0.339233398,0.86328125,6.774902344,-14.40429688,4.150390625
625480,0.026977539,0.280639648,0.848999023,18.73779297,-8.483886719,5.37109375
625506,0.008789063,0.356323242,0.879882813,49.8046875,-1.525878906,4.760742188
625532,0.022216797,0.454223633,0.911987305,67.87109375,-0.9765625,7.141113281
625559,0.033569336,0.457763672,0.893676758,84.59472656,0.610351563,9.582519531
625585,0.033569336,0.467163086,0.850708008,96.86279297,0.671386719,10.55908203
625611,0.01953125,0.596069336,0.844238281,95.45898438,0.9765625,10.19287109
625637,-0.004150391,0.639892578,0.868530273,81.17675781,-3.540039063,12.26806641
625663,0.006591797,0.619873047,0.860473633,69.39697266,-7.995605469,13.73291016
625690,0.023193359,0.626098633,0.801269531,73.73046875,-10.31494141,14.22119141
625716,0.016113281,0.642211914,0.754516602,87.70751953,-8.30078125,14.46533203
625742,0.026977539,0.713623047,0.741210938,94.23828125,-8.361816406,14.22119141
625768,0.043579102,0.674194336,0.715698242,100.4638672,-12.6953125,14.95361328
625795,0.062011719,0.705688477,0.624511719,126.7089844,-10.07080078,13.61083984
625821,0.087280273,0.755493164,0.517333984,139.4042969,-8.728027344,11.84082031
625847,0.08190918,0.845703125,0.453613281,144.3481445,-4.516601563,10.55908203
625873,0.116699219,1.012939453,0.353759766,139.3432617,-2.197265625,10.55908203
625899,0.126708984,0.942993164,0.224853516,126.8310547,0.549316406,15.625
625925,0.133666992,1.246948242,0.21484375,117.980957,11.47460938,15.625
625951,0.122558594,1.216064453,0.246948242,77.94189453,17.88330078,22.15576172
625978,0.116821289,1.254394531,0.276611328,51.7578125,18.37158203,28.13720703
626004,0.147460938,1.198364258,0.282104492,21.91162109,14.89257813,37.71972656
626030,0.159179688,1.184814453,0.272705078,11.90185547,13.97705078,46.63085938
626056,0.172607422,1.124267578,0.298950195,-0.427246094,12.32910156,51.14746094
626082,0.196655273,1.094726563,0.295776367,-13.42773438,8.972167969,54.99267578
626109,0.231933594,1.043701172,0.250854492,-21.78955078,6.164550781,58.22753906
626135,0.241821289,1.042114258,0.235717773,-22.58300781,6.530761719,59.69238281
626161,0.276245117,0.984130859,0.252441406,-28.93066406,6.958007813,60.66894531
626187,0.290771484,0.962890625,0.248046875,-34.24072266,6.713867188,60.72998047
626213,0.308349609,0.935424805,0.239746094,-35.76660156,6.958007813,60.97412109
626240,0.342895508,0.886352539,0.236450195,-38.39111328,7.629394531,61.21826172
626266,0.365234375,0.829467773,0.298095703,-38.81835938,10.43701172,59.20410156
626292,0.369750977,0.800537109,0.328857422,-35.09521484,12.32910156,55.6640625
626318,0.386962891,0.877563477,0.282470703,-26.42822266,14.28222656,52.00195313
626344,0.366943359,0.841552734,0.399169922,-8.361816406,34.79003906,27.77099609
626370,0.403564453,0.751953125,0.385620117,-29.23583984,15.93017578,38.87939453
626397,0.394042969,0.790649414,0.383544922,-27.77099609,15.44189453,37.59765625
626423,0.416137695,0.7265625,0.412841797,-43.21289063,7.141113281,38.02490234
626449,0.429077148,0.669677734,0.491088867,-45.71533203,1.708984375,37.65869141
626475,0.440307617,0.686767578,0.484375,-39.85595703,-0.061035156,35.76660156
626501,0.478271484,0.635009766,0.490966797,-36.07177734,-2.258300781,33.81347656
626527,0.472290039,0.644775391,0.506469727,-30.76171875,-1.281738281,29.66308594
626553,0.495361328,0.6171875,0.520019531,-29.296875,-2.075195313,27.22167969
626580,0.51159668,0.598510742,0.536132813,-23.80371094,-0.183105469,22.64404297
626606,0.517822266,0.588256836,0.562744141,-20.93505859,-0.061035156,16.72363281
626632,0.527099609,0.579589844,0.561279297,-17.15087891,1.770019531,12.57324219
626658,0.533569336,0.56652832,0.552124023,-16.05224609,0.9765625,9.521484375
626684,0.543701172,0.59387207,0.554199219,-19.47021484,-3.540039063,13.48876953
626711,0.541137695,0.568603516,0.573852539,-32.2265625,-12.26806641,14.22119141
626737,0.551147461,0.52355957,0.583374023,-30.76171875,-13.24462891,11.35253906
626763,0.564575195,0.547607422,0.541625977,-8.178710938,0.061035156,5.432128906
626789,0.56640625,0.549804688,0.556152344,-4.638671875,2.685546875,4.821777344
626815,0.555541992,0.53125,0.587524414,-1.342773438,5.432128906,4.39453125
626842,0.572753906,0.507568359,0.608886719,-5.615234375,1.708984375,2.502441406
626868,0.565185547,0.508544922,0.66015625,-5.065917969,1.403808594,0.366210938
626894,0.557861328,0.474243164,0.717895508,-5.676269531,-4.150390625,-2.746582031
626920,0.569702148,0.52722168,0.679321289,-0.793457031,-9.216308594,-5.798339844
626946,0.575317383,0.570800781,0.634155273,0.915527344,-10.55908203,-6.164550781
626972,0.578613281,0.617675781,0.599365234,-2.746582031,-9.765625,-3.90625
626998,0.611572266,0.555297852,0.584716797,-2.075195313,-6.591796875,-0.610351563
627024,0.603149414,0.58190918,0.559448242,1.525878906,-2.258300781,0.183105469
627051,0.585449219,0.547241211,0.619506836,-4.516601563,0.061035156,1.098632813
627077,0.581787109,0.477416992,0.69128418,-2.990722656,-1.647949219,-0.854492188
627103,0.570800781,0.502563477,0.707519531,1.586914063,-3.845214844,-3.540039063
627129,0.563232422,0.568237305,0.652099609,1.892089844,-8.30078125,-5.065917969
627155,0.581787109,0.592773438,0.609741211,1.525878906,-7.690429688,-3.540039063
627182,0.592407227,0.596679688,0.606201172,1.159667969,-4.39453125,-0.915527344
627208,0.591308594,0.568481445,0.625488281,-2.624511719,-2.746582031,-0.061035156
627234,0.582641602,0.509765625,0.678710938,-5.37109375,-3.173828125,-0.915527344
627260,0.581665039,0.490356445,0.67565918,-1.647949219,-6.713867188,-3.295898438
627286,0.576171875,0.532348633,0.625854492,1.46484375,-7.141113281,-5.065917969
627313,0.573242188,0.567260742,0.600463867,1.770019531,-5.737304688,-4.455566406
627339,0.577392578,0.568359375,0.598144531,-0.915527344,-3.112792969,-2.868652344
627365,0.575683594,0.529785156,0.64050293,-1.770019531,-1.892089844,-2.197265625
627391,0.5625,0.524047852,0.691162109,1.342773438,-3.723144531,-2.868652344
627417,0.590820313,0.526367188,0.676513672,0.305175781,-8.666992188,-3.723144531
627443,0.574707031,0.543701172,0.626586914,1.098632813,-9.887695313,-3.967285156
627470,0.578613281,0.566040039,0.594970703,0.610351563,-7.202148438,-2.807617188
627496,0.583129883,0.538452148,0.620117188,-1.403808594,-4.39453125,-1.708984375
627522,0.583374023,0.514648438,0.651977539,-1.098632813,-4.089355469,-1.770019531
627548,0.571533203,0.523071289,0.680175781,1.586914063,-5.920410156,-3.479003906
627574,0.568969727,0.524536133,0.667114258,-1.098632813,-9.643554688,-4.577636719
627601,0.573120117,0.534790039,0.647949219,0.366210938,-10.00976563,-4.943847656
627627,0.57434082,0.541748047,0.627929688,-1.403808594,-9.765625,-5.187988281
627653,0.580566406,0.51940918,0.629516602,-1.037597656,-8.361816406,-5.126953125
627679,0.582275391,0.545166016,0.623657227,1.708984375,-7.080078125,-5.065917969
627705,0.582641602,0.545410156,0.648681641,0.122070313,-7.507324219,-4.39453125
627731,0.58972168,0.532958984,0.648071289,-0.427246094,-9.155273438,-4.455566406
627758,0.588867188,0.535766602,0.637329102,0.671386719,-9.216308594,-4.760742188
627784,0.58605957,0.540161133,0.631958008,2.075195313,-8.117675781,-4.760742188
627810,0.580078125,0.53125,0.637207031,0.9765625,-7.995605469,-5.004882813
627836,0.584594727,0.525268555,0.634765625,-0.9765625,-8.422851563,-5.798339844
627862,0.57824707,0.502807617,0.642333984,-2.136230469,-8.666992188,-7.507324219
627889,0.556640625,0.505249023,0.649780273,-6.164550781,-10.37597656,-10.68115234
627915,0.555908203,0.457275391,0.667358398,-11.71875,-13.18359375,-15.13671875
627941,0.547973633,0.422363281,0.649780273,-10.07080078,-15.99121094,-19.95849609
627967,0.498657227,0.517822266,0.614501953,-10.80322266,-17.63916016,-26.91650391
627993,0.47265625,0.545043945,0.578369141,-38.45214844,-22.03369141,-33.26416016
628020,0.46862793,0.403076172,0.577026367,-56.09130859,-28.07617188,-36.92626953
628046,0.478881836,0.334228516,0.524414063,-50.29296875,-24.16992188,-44.86083984
628072,0.454956055,0.368164063,0.519165039,-55.90820313,-17.45605469,-57.49511719
628098,0.397705078,0.439331055,0.539794922,-70.98388672,-14.46533203,-66.65039063
628124,0.447631836,0.333740234,0.508422852,-80.87158203,-17.51708984,-76.96533203
628151,0.481811523,0.191894531,0.584716797,-47.8515625,-3.723144531,-85.02197266
628177,0.413574219,0.422119141,0.643066406,-31.12792969,12.6953125,-95.27587891
628203,0.317871094,0.695678711,0.626464844,-57.12890625,18.73779297,-102.6611328
628229,0.428588867,0.379882813,0.658325195,-78.85742188,18.67675781,-106.9946289
628256,0.380615234,0.374267578,0.786376953,-57.00683594,28.99169922,-106.0180664
628282,0.280517578,0.588623047,0.841186523,-43.45703125,36.56005859,-95.45898438
628308,0.273803711,0.647216797,0.829956055,-55.48095703,41.62597656,-95.33691406
628334,0.208496094,0.53894043,0.928344727,-55.41992188,47.79052734,-91.67480469
628361,0.215454102,0.58972168,0.99230957,-41.44287109,45.28808594,-83.61816406
628387,0.169921875,0.677490234,0.995727539,-68.90869141,27.70996094,-61.64550781
628413,0.130493164,0.537353516,1.05078125,-96.86279297,25.32958984,-62.56103516
628439,0.145263672,0.340576172,1.03503418,-91.97998047,15.07568359,-55.48095703
628465,0.152954102,0.242797852,0.996337891,-41.56494141,13.91601563,-49.07226563
628492,0.146118164,0.288574219,0.995483398,-6.286621094,12.6953125,-46.63085938
628518,0.149536133,0.304443359,1.082885742,35.88867188,14.95361328,-42.54150391
628544,0.110107422,0.491455078,1.309814453,36.92626953,18.85986328,-39.30664063
628570,0.058105469,0.437744141,1.391845703,25.51269531,17.02880859,-33.38623047
628596,0.051513672,0.578369141,1.146484375,16.05224609,16.47949219,-17.70019531
628622,0.021484375,0.538818359,0.911621094,-4.699707031,4.39453125,-11.35253906
628648,0.018554688,0.498413086,0.932617188,-3.356933594,-2.990722656,-4.455566406
628675,0.014892578,0.399536133,0.966064453,4.333496094,-2.9296875,1.708984375
628701,0.000732422,0.354614258,0.914794922,16.47949219,-3.112792969,3.90625
628727,-0.015380859,0.380371094,0.892700195,15.25878906,-1.525878906,3.173828125
628753,-0.017211914,0.373046875,0.884399414,7.8125,-0.244140625,1.525878906
628779,0.006469727,0.354614258,0.90612793,-1.098632813,-0.183105469,-1.46484375
628805,0.026611328,0.345336914,0.900146484,0.854492188,0.549316406,-4.333496094
628831,0.026977539,0.371582031,0.896362305,3.295898438,2.258300781,-5.859375
628858,-0.000610352,0.411621094,0.924682617,4.821777344,3.479003906,-5.065917969
628884,-0.011352539,0.429077148,0.940917969,3.41796875,2.197265625,-3.356933594
628910,-0.016479492,0.422363281,0.937255859,2.258300781,1.098632813,-1.953125
628936,-0.019165039,0.420898438,0.928222656,1.831054688,-0.549316406,-0.366210938
628962,-0.019897461,0.395141602,0.927368164,1.831054688,-1.525878906,0.183105469
628989,-0.023681641,0.383911133,0.923461914,1.770019531,-1.892089844,-0.122070313
629015,-0.017700195,0.376464844,0.918212891,2.136230469,-2.563476563,-0.854492188
629041,-0.004638672,0.388549805,0.892944336,0.793457031,-2.136230469,-2.44140625
629067,-0.014282227,0.377807617,0.888916016,3.356933594,0.793457031,-3.540039063
629093,-0.018310547,0.407470703,0.933349609,2.624511719,-1.098632813,-4.333496094
629119,-0.030395508,0.391723633,0.958007813,-1.647949219,-4.089355469,-4.760742188
629146,-0.030151367,0.383911133,0.930786133,1.037597656,-5.126953125,-5.004882813
629172,-0.033691406,0.393554688,0.930664063,4.638671875,-6.042480469,-5.615234375
629198,-0.028686523,0.391235352,0.911254883,4.028320313,-7.202148438,-5.737304688
629224,-0.02722168,0.392333984,0.891357422,4.943847656,-6.164550781,-5.798339844
629250,-0.021606445,0.39440918,0.913452148,4.8828125,-4.821777344,-6.164550781
629275,-0.014526367,0.351928711,0.902587891,29.72412109,0.793457031,-2.807617188
629301,-0.016113281,0.34777832,0.91015625,63.29345703,3.051757813,0.366210938
629327,-0.036865234,0.435546875,0.91809082,140.1977539,4.577636719,5.981445313
629353,-0.040405273,0.637695313,0.888916016,172.7905273,1.708984375,5.981445313
629379,-0.046264648,0.729492188,0.811767578,159.3017578,-2.685546875,6.408691406
629405,-0.0546875,0.697021484,0.692138672,103.2714844,-10.80322266,8.728027344
629431,-0.041748047,0.742675781,0.69128418,73.97460938,-12.08496094,5.493164063
629457,-0.059326172,0.647705078,0.73059082,72.20458984,-13.00048828,4.089355469
629482,-0.046142578,0.640136719,0.697265625,95.76416016,-13.30566406,0.671386719
629508,-0.039550781,0.690307617,0.651367188,107.7270508,-15.50292969,-2.44140625
629534,-0.014282227,0.774536133,0.54309082,115.4785156,-17.70019531,-5.310058594
629561,-0.005004883,1.008422852,0.429077148,114.9902344,-13.18359375,-4.089355469
629587,-0.021362305,0.958984375,0.367431641,97.59521484,-11.10839844,0.671386719
629613,-0.004760742,1.043823242,0.342651367,96.55761719,-5.859375,1.892089844
629639,-0.01159668,0.975952148,0.343383789,78.30810547,-1.647949219,8.483886719
629664,0.009887695,0.939819336,0.291870117,77.27050781,0.427246094,8.972167969
629690,0.026245117,1.106445313,0.2265625,78.91845703,6.286621094,10.07080078
629716,0.034667969,1.121704102,0.187011719,65.79589844,11.53564453,17.39501953
629743,0.043457031,1.162597656,0.16784668,58.47167969,14.34326172,20.81298828
629769,0.055175781,1.11340332,0.154418945,42.41943359,18.85986328,29.23583984
629795,0.071166992,1.104125977,0.16796875,33.50830078,22.33886719,34.85107422
629821,0.084350586,1.141601563,0.135131836,28.86962891,22.94921875,37.41455078
629847,0.109619141,1.080688477,0.142944336,14.16015625,23.31542969,41.38183594
629873,0.130859375,1.051025391,0.147583008,5.249023438,24.35302734,43.76220703
629899,0.158081055,1.052734375,0.153686523,3.540039063,26.18408203,44.86083984
629926,0.182006836,1.135620117,0.192260742,1.342773438,30.21240234,47.24121094
629952,0.203979492,1.118530273,0.206787109,-8.911132813,28.93066406,51.94091797
629978,0.228881836,1.091552734,0.205810547,-17.94433594,26.18408203,57.55615234
630004,0.25793457,1.048095703,0.225219727,-22.15576172,25.20751953,60.05859375
630030,0.283691406,1.005371094,0.220336914,-26.42822266,24.84130859,62.31689453
630057,0.296875,0.969482422,0.215942383,-32.83691406,24.96337891,62.37792969
630083,0.303833008,0.916625977,0.235595703,-34.72900391,24.96337891,61.70654297
630109,0.319335938,0.896240234,0.260620117,-36.62109375,24.71923828,60.24169922
630135,0.339477539,0.857055664,0.27746582,-37.53662109,23.25439453,57.86132813
630161,0.350097656,0.845214844,0.292236328,-35.33935547,22.76611328,55.78613281
630188,0.361694336,0.831420898,0.337890625,-36.56005859,20.87402344,53.16162109
630214,0.379272461,0.786987305,0.37512207,-37.71972656,18.24951172,49.49951172
630240,0.406982422,0.641479492,0.332397461,-36.31591797,16.23535156,45.16601563
630266,0.354980469,0.885131836,0.439331055,-4.8828125,36.98730469,19.59228516
630292,0.385009766,0.706054688,0.464599609,-42.11425781,9.460449219,36.01074219
630318,0.421264648,0.539306641,0.457275391,-42.05322266,5.798339844,35.21728516
630345,0.416381836,0.736694336,0.456176758,-28.56445313,8.7890625,21.54541016
630371,0.427124023,0.735839844,0.462402344,-27.03857422,6.591796875,18.79882813
630397,0.422851563,0.707397461,0.468383789,-28.13720703,3.601074219,21.484375
630423,0.444091797,0.6875,0.460571289,-30.76171875,-1.46484375,18.31054688
630449,0.450195313,0.662109375,0.476318359,-30.82275391,-4.333496094,18.67675781
630475,0.467285156,0.660766602,0.469482422,-29.296875,-5.37109375,17.88330078
630502,0.481689453,0.665283203,0.471313477,-27.28271484,-3.90625,15.19775391
630528,0.49621582,0.617919922,0.514892578,-25.08544922,-2.197265625,12.81738281
630554,0.506347656,0.583618164,0.536743164,-20.44677734,-0.854492188,9.399414063
630580,0.50378418,0.620849609,0.551269531,-14.28222656,0.122070313,5.126953125
630606,0.508178711,0.631835938,0.554199219,-15.44189453,-0.305175781,2.44140625
630632,0.5234375,0.603149414,0.568725586,-14.52636719,-0.061035156,1.586914063
630659,0.515136719,0.614135742,0.588500977,-10.13183594,0.427246094,0.366210938
630685,0.512329102,0.649536133,0.586547852,-14.16015625,-1.403808594,-0.671386719
630711,0.521850586,0.628051758,0.601806641,-17.27294922,-3.112792969,-0.48828125
630737,0.531738281,0.60925293,0.620605469,-13.85498047,-2.685546875,-1.159667969
630764,0.513305664,0.657348633,0.639404297,-16.23535156,-3.601074219,-2.014160156
630790,0.53503418,0.625366211,0.63659668,-22.52197266,-6.042480469,-1.281738281
630816,0.542236328,0.598510742,0.656860352,-20.56884766,-5.554199219,-1.037597656
630842,0.526855469,0.660766602,0.652709961,-21.42333984,-5.859375,-1.159667969
630868,0.530761719,0.622436523,0.663085938,-35.40039063,-8.422851563,-0.854492188
630895,0.559692383,0.542602539,0.667724609,-36.1328125,-9.826660156,2.197265625
630921,0.55871582,0.562988281,0.648193359,-26.85546875,-10.07080078,5.37109375
630947,0.540405273,0.547851563,0.632446289,-31.73828125,-8.972167969,4.150390625
630973,0.55065918,0.499267578,0.673339844,-30.63964844,-5.004882813,2.868652344
630999,0.568725586,0.41796875,0.66003418,-19.65332031,-3.479003906,-1.403808594
631025,0.533813477,0.510253906,0.649414063,-10.13183594,0.915527344,-3.90625
631052,0.521972656,0.538818359,0.681274414,-16.11328125,0.610351563,-4.638671875
631078,0.530395508,0.462646484,0.708740234,-21.66748047,-2.258300781,-2.624511719
631104,0.522460938,0.491821289,0.696777344,-13.73291016,-1.708984375,-3.234863281
631130,0.515136719,0.537841797,0.679199219,-21.36230469,-4.760742188,-0.610351563
631156,0.525634766,0.484985352,0.722900391,-46.02050781,-12.63427734,1.586914063
631182,0.563598633,0.311401367,0.733764648,-32.40966797,-12.6953125,2.563476563
631209,0.544189453,0.416992188,0.709960938,-14.03808594,-7.385253906,0.366210938
631235,0.529052734,0.498413086,0.703613281,-23.01025391,-4.821777344,-1.281738281
631261,0.565185547,0.317626953,0.755249023,-30.57861328,-7.8125,-0.854492188
631287,0.573364258,0.291381836,0.751708984,-9.704589844,-5.859375,-0.9765625
631314,0.536743164,0.455566406,0.72668457,-1.525878906,-1.708984375,-3.601074219
631340,0.539916992,0.387451172,0.784545898,-12.93945313,-4.089355469,-1.586914063
631366,0.563598633,0.322631836,0.780029297,-7.934570313,-5.615234375,-2.563476563
631392,0.542358398,0.427368164,0.739624023,5.310058594,-4.150390625,-3.41796875
631418,0.544799805,0.406860352,0.749633789,-3.784179688,-5.676269531,-2.563476563
631444,0.545043945,0.369262695,0.762939453,-2.9296875,-5.37109375,-2.258300781
631471,0.546142578,0.390991211,0.734375,2.502441406,-4.943847656,-2.9296875
631497,0.539916992,0.383789063,0.753295898,-0.671386719,-5.37109375,-3.295898438
631523,0.536621094,0.374389648,0.770019531,0.244140625,-5.432128906,-3.479003906
631549,0.541259766,0.390258789,0.762573242,4.150390625,-5.737304688,-3.540039063
631575,0.541259766,0.408691406,0.755493164,2.197265625,-6.774902344,-3.723144531
631601,0.544921875,0.404663086,0.753051758,-1.953125,-7.446289063,-3.723144531
631628,0.549682617,0.39831543,0.765258789,-1.770019531,-7.080078125,-3.234863281
631654,0.547973633,0.420166016,0.750854492,-2.136230469,-6.408691406,-2.807617188
631680,0.547241211,0.422607422,0.741333008,-9.521484375,-6.286621094,-2.44140625
631706,0.545532227,0.444213867,0.72265625,-17.70019531,-5.615234375,-2.258300781
631733,0.535644531,0.445068359,0.743896484,-39.48974609,-5.920410156,-2.990722656
631759,0.559692383,0.3203125,0.754638672,-52.12402344,-7.080078125,-1.892089844
631785,0.561157227,0.299438477,0.756347656,-48.88916016,-4.516601563,-1.586914063
631811,0.542602539,0.366577148,0.746459961,-55.17578125,-1.159667969,-1.953125
631837,0.549438477,0.277099609,0.770507813,-74.03564453,-4.638671875,-1.220703125
631864,0.592895508,0.127075195,0.818237305,-71.83837891,-5.981445313,1.770019531
631890,0.561279297,0.14440918,0.861206055,-44.00634766,-0.427246094,0.122070313
631916,0.533935547,0.241455078,0.833374023,-38.63525391,-0.48828125,-2.563476563
631942,0.550415039,0.178100586,0.849609375,-42.72460938,-3.845214844,-1.159667969
631968,0.559326172,0.058227539,0.895263672,-33.38623047,-3.845214844,-0.48828125
631994,0.537231445,0.122680664,0.879760742,-17.33398438,-3.90625,-2.319335938
632021,0.541015625,0.141845703,0.85546875,-16.78466797,-5.798339844,-2.9296875
632047,0.545166016,0.120605469,0.841552734,-19.77539063,-7.995605469,-4.516601563
632073,0.541625977,0.092407227,0.836547852,-17.45605469,-7.32421875,-5.249023438
632099,0.537963867,0.078369141,0.825439453,-13.30566406,-6.164550781,-5.981445313
637137,0.059570313,0.254760742,0.955322266,125.9155273,7.019042969,5.676269531
637163,0.049316406,0.409179688,0.878295898,173.034668,9.826660156,5.249023438
637189,0.000244141,0.692260742,0.708618164,182.9223633,8.728027344,4.943847656
637215,-0.011474609,0.715454102,0.674438477,150.7568359,6.225585938,4.455566406
637241,-0.020263672,0.737426758,0.669189453,140.1977539,3.479003906,0.915527344
637267,0.011230469,0.768188477,0.651977539,136.0473633,0.244140625,-1.525878906
637292,0.005859375,0.800292969,0.60949707,138.7329102,-0.671386719,-5.126953125
637318,0.014404297,0.840820313,0.471801758,132.6293945,-2.380371094,-7.080078125
637345,0.013183594,0.876464844,0.340942383,135.0097656,4.028320313,-10.25390625
637371,-0.016357422,0.987915039,0.264282227,124.0234375,11.84082031,-8.850097656
637397,-0.043823242,1.047119141,0.179199219,110.7177734,14.34326172,-10.43701172
637423,-0.072509766,1.226196289,0.170410156,80.68847656,20.62988281,-6.8359375
637450,-0.060546875,1.061523438,0.130615234,45.8984375,19.10400391,2.563476563
637476,-0.071166992,1.201904297,0.140136719,47.36328125,23.37646484,3.601074219
637502,-0.074462891,1.252075195,0.12890625,32.47070313,24.71923828,15.68603516
637528,-0.060791016,1.212280273,0.131835938,19.40917969,25.08544922,31.00585938
637554,-0.048828125,1.14440918,0.158203125,13.85498047,25.81787109,38.87939453
637580,-0.021850586,1.133300781,0.202880859,12.93945313,24.84130859,48.15673828
637606,0.014038086,1.16394043,0.15222168,11.29150391,21.66748047,55.90820313
637633,0.046386719,1.117431641,0.133666992,0.549316406,19.77539063,60.546875
637659,0.099853516,1.028930664,0.142700195,-10.80322266,18.92089844,64.27001953
637685,0.130737305,1.002563477,0.184692383,-10.43701172,19.65332031,64.81933594
637711,0.143920898,1.035644531,0.206665039,-10.37597656,19.95849609,64.69726563
637737,0.193481445,0.960449219,0.197143555,-25.51269531,16.84570313,64.27001953
637764,0.236816406,0.916870117,0.208007813,-27.46582031,16.90673828,60.48583984
637790,0.248046875,0.94543457,0.230224609,-24.23095703,18.37158203,59.32617188
637816,0.267089844,0.943359375,0.267578125,-28.93066406,17.02880859,57.43408203
637843,0.305297852,0.892822266,0.297607422,-34.72900391,13.48876953,56.39648438
637869,0.325439453,0.884887695,0.281005859,-33.14208984,12.02392578,55.72509766
637895,0.340942383,0.901123047,0.310913086,-33.75244141,11.77978516,54.50439453
637921,0.369384766,0.846801758,0.354614258,-36.68212891,9.582519531,52.61230469
637947,0.386108398,0.830078125,0.371459961,-36.31591797,8.30078125,51.14746094
637973,0.412475586,0.818725586,0.350708008,-35.03417969,6.8359375,48.64501953
638000,0.514404297,0.665039063,0.28112793,-33.02001953,10.68115234,45.28808594
638026,0.410644531,0.839355469,0.416870117,-26.61132813,7.080078125,35.82763672
638052,0.447387695,0.784179688,0.41015625,-39.67285156,5.676269531,38.87939453
638078,0.460449219,0.748046875,0.423461914,-42.17529297,4.516601563,38.57421875
638104,0.480957031,0.714355469,0.423095703,-39.85595703,5.615234375,37.23144531
638129,0.479125977,0.685668945,0.446777344,-35.94970703,6.8359375,34.66796875
638155,0.484619141,0.662963867,0.46862793,-36.1328125,5.004882813,31.18896484
638182,0.487548828,0.659790039,0.493041992,-37.23144531,4.39453125,29.72412109
638208,0.503540039,0.636474609,0.511962891,-34.42382813,4.821777344,26.73339844
638234,0.501953125,0.636230469,0.535644531,-33.93554688,4.272460938,25.75683594
638260,0.520507813,0.606201172,0.545898438,-35.21728516,3.479003906,24.47509766
638286,0.521118164,0.610229492,0.583496094,-32.16552734,4.150390625,22.39990234
638313,0.541015625,0.557983398,0.588745117,-36.92626953,-0.48828125,21.30126953
638339,0.545776367,0.541381836,0.597045898,-36.43798828,-1.403808594,17.33398438
638365,0.559204102,0.501098633,0.610839844,-35.64453125,-1.46484375,14.58740234
638391,0.563964844,0.445922852,0.645141602,-33.08105469,-2.990722656,10.31494141
638417,0.549682617,0.463256836,0.65612793,-26.06201172,-3.112792969,3.784179688
638443,0.561157227,0.48840332,0.678710938,-26.30615234,-4.272460938,0.244140625
638470,0.571166992,0.498168945,0.685546875,-22.82714844,-4.39453125,-1.342773438
638496,0.567504883,0.541137695,0.660644531,-20.08056641,-3.784179688,-2.380371094
638522,0.579589844,0.545654297,0.653442383,-24.04785156,-3.845214844,-1.037597656
638548,0.594848633,0.508666992,0.651000977,-27.28271484,-4.333496094,0.122070313
638574,0.58972168,0.471191406,0.672241211,-25.20751953,-2.624511719,0.061035156
638601,0.585449219,0.465820313,0.674560547,-22.4609375,-1.770019531,-0.610351563
638627,0.581176758,0.465942383,0.671142578,-23.92578125,-0.427246094,-1.953125
638653,0.586791992,0.43371582,0.67590332,-22.58300781,-0.48828125,-1.46484375
638679,0.57824707,0.418701172,0.698364258,-19.53125,0.061035156,-1.46484375
638705,0.547485352,0.444946289,0.729125977,-9.582519531,5.249023438,-5.249023438
638732,0.555053711,0.413330078,0.702636719,-19.53125,-4.272460938,-1.892089844
638758,0.553955078,0.391601563,0.712646484,-14.52636719,-1.708984375,-2.746582031
638784,0.552368164,0.381103516,0.738647461,-11.47460938,-3.540039063,-1.831054688
638810,0.551391602,0.373168945,0.73046875,-9.460449219,-6.469726563,-1.770019531
638836,0.551879883,0.379394531,0.731567383,-8.7890625,-7.263183594,-2.258300781
638862,0.555419922,0.371826172,0.722412109,-7.385253906,-8.850097656,-2.075195313
638889,0.568969727,0.373168945,0.718505859,-1.525878906,-7.934570313,-1.403808594
638915,0.561157227,0.395019531,0.721313477,-1.586914063,-7.751464844,-1.953125
638941,0.560424805,0.363037109,0.751098633,-6.34765625,-9.704589844,-2.624511719
638967,0.565185547,0.362548828,0.741821289,-5.310058594,-12.20703125,-4.516601563
638993,0.568847656,0.37878418,0.731323242,-3.784179688,-12.57324219,-4.760742188
639020,0.557739258,0.408325195,0.721191406,-7.507324219,-13.42773438,-5.920410156
639046,0.557006836,0.393188477,0.725830078,-21.60644531,-16.11328125,-7.019042969
639072,0.560180664,0.35949707,0.71081543,-29.23583984,-18.85986328,-7.507324219
639098,0.565551758,0.361816406,0.677124023,-39.61181641,-19.77539063,-9.460449219
639124,0.568115234,0.378051758,0.648071289,-63.90380859,-20.44677734,-12.87841797
639150,0.581054688,0.325195313,0.63659668,-88.07373047,-21.11816406,-15.80810547
639176,0.631958008,0.095825195,0.658325195,-95.27587891,-19.71435547,-17.70019531
639202,0.624023438,0.064331055,0.656860352,-63.41552734,-7.080078125,-24.47509766
639228,0.571411133,0.140380859,0.638305664,-48.40087891,2.197265625,-30.21240234
639254,0.557250977,0.066772461,0.693481445,-53.16162109,5.126953125,-40.22216797
639280,0.566650391,-0.047729492,0.772460938,-35.94970703,7.263183594,-47.97363281
639306,0.524658203,0.039428711,0.773803711,-15.13671875,12.39013672,-51.45263672
639332,0.474609375,0.186889648,0.712158203,-11.04736328,14.40429688,-59.69238281
639358,0.479736328,0.259155273,0.678588867,-28.01513672,16.29638672,-66.77246094
639384,0.461914063,0.228393555,0.721679688,-36.74316406,21.17919922,-68.17626953
639410,0.433105469,0.237670898,0.732543945,-32.47070313,27.40478516,-66.77246094
639437,0.422607422,0.307128906,0.706787109,-36.19384766,35.03417969,-67.13867188
639463,0.393310547,0.329223633,0.755249023,-48.828125,31.98242188,-64.08691406
639489,0.371826172,0.270751953,0.904418945,-48.76708984,38.63525391,-63.04931641
639515,0.390258789,0.20703125,0.850708008,-26.91650391,44.12841797,-55.6640625
639541,0.333618164,0.257446289,0.918334961,-9.399414063,49.8046875,-57.67822266
639567,0.273071289,0.323364258,1.039672852,-0.854492188,52.24609375,-51.63574219
639594,0.213867188,0.252441406,1.096557617,2.136230469,51.69677734,-52.49023438
639620,0.275634766,0.177490234,1.051025391,5.249023438,28.38134766,-45.95947266
639646,0.239624023,0.270019531,1.078979492,30.45654297,26.12304688,-45.47119141
639672,0.208618164,0.36328125,1.081176758,40.52734375,28.01513672,-44.31152344
639698,0.189331055,0.350097656,1.075439453,28.07617188,17.39501953,-41.07666016
639725,0.184082031,0.299804688,1.075683594,24.90234375,7.995605469,-40.71044922
639751,0.200805664,0.31237793,1.0234375,34.1796875,-3.295898438,-41.87011719
639777,0.181762695,0.394165039,1.007568359,37.17041016,-7.934570313,-41.25976563
639803,0.205078125,0.477294922,0.994750977,30.70068359,-9.460449219,-38.75732422
639829,0.208740234,0.454956055,1.018066406,21.66748047,-9.338378906,-33.87451172
639855,0.225585938,0.440185547,1.019897461,16.11328125,-5.37109375,-28.99169922
639881,0.207885742,0.415527344,0.99206543,16.6015625,-0.549316406,-27.77099609
639907,0.150024414,0.503051758,0.955444336,16.41845703,6.34765625,-26.30615234
639933,0.120727539,0.529174805,0.940551758,3.967285156,6.469726563,-23.4375
639960,0.114624023,0.451782227,0.935791016,1.220703125,3.967285156,-20.44677734
639986,0.123413086,0.46484375,0.943725586,10.68115234,0.183105469,-16.47949219
640012,0.119750977,0.470336914,0.965576172,14.34326172,-1.525878906,-11.29150391
640038,0.127197266,0.49206543,0.959472656,12.20703125,-3.601074219,-8.361816406
640064,0.137573242,0.474853516,0.947387695,7.32421875,-6.469726563,-5.187988281
640090,0.13671875,0.497314453,0.928710938,5.920410156,-8.361816406,-4.516601563
640116,0.133056641,0.48828125,0.902099609,5.676269531,-8.422851563,-3.540039063
640143,0.130859375,0.450683594,0.89074707,6.8359375,-7.8125,-0.915527344
640169,0.128051758,0.451416016,0.883056641,11.96289063,-6.652832031,0.48828125
640195,0.133911133,0.440917969,0.887207031,16.11328125,-5.737304688,0.793457031
640221,0.137207031,0.423828125,0.90234375,37.53662109,-2.807617188,1.098632813
640247,0.12890625,0.481933594,0.874633789,58.04443359,-1.342773438,1.46484375
640273,0.124755859,0.464599609,0.868652344,68.60351563,-0.793457031,2.136230469
640300,0.12878418,0.473144531,0.861083984,94.78759766,-1.281738281,1.098632813
640326,0.117553711,0.571289063,0.792480469,116.3330078,-3.540039063,-1.281738281
640352,0.123168945,0.686401367,0.768310547,118.2861328,-3.234863281,-2.563476563
640378,0.143554688,0.559936523,0.688354492,114.3798828,-2.319335938,-4.638671875
640404,0.137573242,0.665405273,0.594360352,136.9018555,1.647949219,-8.117675781
640431,0.114990234,0.791625977,0.565795898,151.6723633,4.821777344,-8.666992188
640457,0.118041992,1.027832031,0.525512695,150.6347656,10.80322266,-7.32421875
640483,0.137817383,1.066650391,0.478637695,118.8964844,9.216308594,-1.281738281
640509,0.124023438,1.062744141,0.474609375,103.8208008,10.55908203,2.44140625
640535,0.10534668,1.104492188,0.418457031,92.95654297,9.033203125,9.826660156
640561,0.108398438,1.235229492,0.348388672,80.56640625,7.8125,21.11816406
640587,0.123046875,1.242431641,0.323242188,58.89892578,7.629394531,27.16064453
640614,0.147216797,1.207763672,0.322753906,32.83691406,7.751464844,38.20800781
640640,0.167724609,1.123657227,0.343505859,15.44189453,5.37109375,47.91259766
640666,0.180541992,1.106933594,0.339477539,7.568359375,3.173828125,53.03955078
640692,0.200073242,1.048095703,0.294067383,-4.150390625,0.061035156,58.89892578
640718,0.225708008,1.031616211,0.307861328,-11.71875,-0.244140625,62.31689453
640745,0.246582031,0.967285156,0.289672852,-16.90673828,-0.183105469,63.65966797
640771,0.259155273,0.962768555,0.282226563,-21.17919922,0,63.4765625
640797,0.299804688,0.847167969,0.293212891,-17.08984375,15.07568359,61.40136719
640823,0.317382813,0.916015625,0.264648438,-32.10449219,6.958007813,52.24609375
640849,0.340454102,0.84387207,0.267211914,-40.83251953,3.967285156,50.17089844
640875,0.368408203,0.791015625,0.30480957,-46.63085938,3.41796875,51.26953125
640902,0.354492188,0.776000977,0.311889648,-50.17089844,-2.258300781,58.47167969
640928,0.381958008,0.712890625,0.381591797,-50.17089844,-7.141113281,59.75341797
640954,0.415649414,0.768066406,0.430908203,-48.70605469,-13.06152344,59.87548828
640980,0.484741211,0.705322266,0.427124023,-44.31152344,-12.75634766,59.20410156
641006,0.527832031,0.660888672,0.441772461,-33.02001953,-6.530761719,55.54199219
641033,0.545288086,0.711669922,0.466796875,-22.09472656,0.915527344,48.64501953
641059,0.54309082,0.711547852,0.490356445,-30.51757813,-0.671386719,48.03466797
641085,0.560058594,0.665039063,0.506958008,-36.01074219,-1.770019531,49.25537109
641111,0.582763672,0.633178711,0.506591797,-35.46142578,-2.197265625,45.16601563
641137,0.622558594,0.627807617,0.473999023,-33.99658203,2.258300781,40.0390625
641163,0.578857422,0.57409668,0.534667969,-28.86962891,12.63427734,34.85107422
641190,0.592651367,0.51953125,0.559692383,-35.94970703,4.699707031,32.89794922
641216,0.60144043,0.489746094,0.536743164,-40.0390625,1.098632813,31.92138672
641242,0.59362793,0.464233398,0.560668945,-41.13769531,3.112792969,28.44238281
641268,0.593383789,0.373779297,0.567016602,-40.0390625,2.258300781,23.80371094
641294,0.611083984,0.297119141,0.552490234,-27.40478516,2.258300781,17.76123047
641320,0.588745117,0.379882813,0.588378906,-12.08496094,5.737304688,14.58740234
641347,0.584716797,0.458618164,0.649780273,-8.666992188,6.408691406,12.14599609
641373,0.618408203,0.399047852,0.6640625,-13.85498047,2.746582031,12.08496094
641399,0.642578125,0.389770508,0.655761719,-10.7421875,1.220703125,11.16943359
641425,0.649536133,0.455078125,0.673461914,-8.605957031,4.211425781,9.27734375
641452,0.656738281,0.427001953,0.723510742,-14.89257813,2.807617188,8.666992188
641478,0.66015625,0.390991211,0.730834961,-17.45605469,0.48828125,7.934570313
641504,0.671386719,0.395629883,0.697998047,-15.74707031,-0.732421875,5.920410156
641530,0.659301758,0.438720703,0.708496094,-17.63916016,0.427246094,4.150390625
641557,0.653442383,0.428344727,0.728515625,-30.2734375,-0.427246094,3.784179688
641583,0.652832031,0.309570313,0.730712891,-30.15136719,-2.624511719,3.662109375
641609,0.627319336,0.400878906,0.700195313,-22.64404297,-0.671386719,2.502441406
641635,0.621704102,0.44152832,0.704467773,-43.39599609,-1.953125,2.868652344
641661,0.657592773,0.216918945,0.724121094,-49.37744141,-5.676269531,4.455566406
641687,0.649658203,0.253417969,0.712402344,-19.77539063,-0.48828125,2.44140625
641714,0.616088867,0.358032227,0.716552734,-22.58300781,1.647949219,1.770019531
641740,0.61706543,0.297973633,0.752563477,-35.09521484,-1.46484375,3.540039063
641766,0.647094727,0.140136719,0.734863281,-26.79443359,-4.089355469,3.356933594
641792,0.614013672,0.264160156,0.735961914,-12.39013672,-0.549316406,0.915527344
641819,0.604248047,0.276489258,0.730834961,-19.47021484,-1.220703125,0.915527344
641845,0.613891602,0.205200195,0.73840332,-27.52685547,-3.356933594,1.953125
641871,0.619262695,0.157348633,0.726928711,-17.82226563,-3.845214844,0.671386719
641897,0.607910156,0.200683594,0.719116211,-12.75634766,-2.868652344,-1.037597656
641923,0.598510742,0.234130859,0.749023438,-19.77539063,-2.380371094,-1.831054688
641950,0.623901367,0.079833984,0.757202148,-19.95849609,-5.249023438,-2.807617188
641976,0.617675781,0.143432617,0.749511719,-4.39453125,-3.051757813,-4.211425781
642002,0.603149414,0.203369141,0.754272461,-2.44140625,-2.624511719,-4.638671875
642028,0.618896484,0.151000977,0.778442383,-3.173828125,-4.943847656,-3.845214844
642054,0.626220703,0.167602539,0.780029297,-0.122070313,-5.676269531,-3.845214844
642080,0.639892578,0.16784668,0.76574707,2.685546875,-6.652832031,-3.90625
642106,0.631225586,0.192016602,0.772460938,0.061035156,-7.263183594,-3.662109375
642133,0.641357422,0.167724609,0.776855469,-1.342773438,-7.629394531,-3.173828125
642159,0.649169922,0.163696289,0.778076172,1.159667969,-7.385253906,-3.479003906
642185,0.634277344,0.187133789,0.773193359,1.281738281,-7.507324219,-4.211425781
642211,0.642211914,0.194824219,0.758544922,-0.305175781,-7.751464844,-4.089355469
642237,0.651123047,0.181396484,0.756103516,-1.46484375,-6.774902344,-3.295898438
642264,0.631835938,0.185913086,0.769165039,0.244140625,-4.516601563,-3.356933594
642290,0.637451172,0.202392578,0.779052734,-1.953125,-4.211425781,-3.662109375
642316,0.638305664,0.175415039,0.782226563,-8.117675781,-5.37109375,-4.089355469
642342,0.642211914,0.175537109,0.766601563,-5.615234375,-4.8828125,-5.798339844
642368,0.624755859,0.229980469,0.769165039,-8.117675781,-3.540039063,-4.943847656
642395,0.623779297,0.208496094,0.780029297,-15.50292969,-4.943847656,-3.723144531
642421,0.656860352,0.115234375,0.77746582,-14.83154297,-6.591796875,-3.479003906
642447,0.638916016,0.163085938,0.763061523,-6.652832031,-3.601074219,-2.746582031
642473,0.637451172,0.164306641,0.776123047,-9.094238281,-3.784179688,-1.403808594
642500,0.6484375,0.081420898,0.786254883,-2.380371094,-4.516601563,-1.831054688
642526,0.632446289,0.171630859,0.781005859,1.708984375,-3.784179688,-2.746582031
642552,0.626464844,0.150268555,0.791992188,-3.234863281,-4.516601563,-2.075195313
642578,0.627807617,0.076904297,0.798706055,-0.732421875,-5.187988281,-3.479003906
642604,0.61706543,0.166992188,0.789672852,5.004882813,-4.028320313,-4.943847656
642630,0.620483398,0.158203125,0.784545898,0.305175781,-5.737304688,-4.638671875
642657,0.63684082,0.152709961,0.782836914,-1.281738281,-5.981445313,-3.784179688
642683,0.634033203,0.156738281,0.784667969,-0.183105469,-4.699707031,-4.516601563
642709,0.617919922,0.171386719,0.784301758,-0.610351563,-4.638671875,-4.333496094
642735,0.615234375,0.174072266,0.772949219,-4.943847656,-5.004882813,-3.051757813
642761,0.612426758,0.177001953,0.773681641,-11.41357422,-5.310058594,-2.44140625
642787,0.611938477,0.173828125,0.762939453,-18.49365234,-5.493164063,-2.258300781
642814,0.626953125,0.113891602,0.76159668,-26.30615234,-6.34765625,-1.953125
642840,0.629882813,0.136230469,0.747558594,-26.67236328,-4.760742188,-2.258300781
642866,0.617919922,0.170288086,0.737182617,-34.36279297,-2.197265625,-1.220703125
642892,0.638549805,0.08605957,0.750610352,-52.734375,-1.892089844,0.9765625
642919,0.658691406,-0.105957031,0.799438477,-41.50390625,1.342773438,0.610351563
642945,0.635009766,-0.042114258,0.81640625,-20.26367188,7.32421875,-1.586914063
642971,0.600830078,0.098144531,0.816040039,-14.03808594,7.507324219,-1.159667969
642998,0.610839844,0.025146484,0.826660156,-26.06201172,2.9296875,0.48828125
643024,0.62097168,-0.008178711,0.825439453,-26.3671875,0.427246094,0.427246094
643050,0.611694336,0.031982422,0.831542969,-24.78027344,-0.549316406,1.892089844
643076,0.615356445,-0.0078125,0.818115234,-31.86035156,-2.380371094,4.39453125
643102,0.622314453,-0.055908203,0.823608398,-30.70068359,-3.540039063,4.821777344
643128,0.614379883,-0.099121094,0.85559082,-23.37646484,-3.41796875,4.8828125
643155,0.595947266,-0.096679688,0.852661133,-12.08496094,-3.845214844,4.516601563
643181,0.591918945,-0.100830078,0.835327148,-6.34765625,-5.004882813,3.173828125
643207,0.592285156,-0.114990234,0.823242188,-4.760742188,-5.432128906,1.770019531
643234,0.589355469,-0.12109375,0.800170898,-3.112792969,-5.004882813,-0.915527344
643260,0.584472656,-0.123168945,0.791259766,-3.295898438,-4.821777344,-4.089355469
643286,0.58581543,-0.123168945,0.776245117,-2.807617188,-4.150390625,-6.103515625
643313,0.585327148,-0.104492188,0.7734375,-2.44140625,-2.624511719,-9.521484375
643339,0.590576172,-0.089355469,0.79309082,-1.647949219,-0.122070313,-10.62011719
643365,0.588256836,-0.076171875,0.793579102,-1.46484375,1.525878906,-10.7421875
643391,0.57824707,-0.076171875,0.801635742,-3.173828125,2.685546875,-10.68115234
643417,0.577026367,-0.083374023,0.814208984,-5.310058594,2.502441406,-10.37597656
643443,0.568603516,-0.105224609,0.815185547,-5.249023438,2.44140625,-11.04736328
643470,0.537963867,-0.12121582,0.801269531,-1.159667969,2.868652344,-13.30566406
643496,0.509155273,-0.140869141,0.771850586,3.601074219,3.967285156,-18.49365234
643522,0.539794922,-0.155151367,0.761352539,9.094238281,6.042480469,-22.27783203
643548,0.530151367,-0.117553711,0.726074219,18.61572266,9.948730469,-28.19824219
643574,0.496826172,-0.107543945,0.716430664,24.47509766,14.58740234,-35.64453125
643601,0.481445313,-0.088500977,0.690673828,27.03857422,19.47021484,-42.41943359
643627,0.484741211,-0.093383789,0.660888672,24.96337891,19.77539063,-46.56982422
643653,0.4453125,-0.009887695,0.731567383,27.16064453,25.81787109,-52.36816406
643679,0.412719727,0.033813477,0.764404297,18.73779297,31.55517578,-56.640625
643705,0.387573242,0.081542969,0.785888672,7.32421875,32.34863281,-61.40136719
643732,0.394042969,0.117675781,0.832885742,-18.31054688,32.65380859,-65.67382813
643758,0.400634766,0.008300781,0.921264648,-23.13232422,39.30664063,-70.25146484
643784,0.382080078,0.028320313,0.930419922,-9.765625,40.64941406,-73.2421875
643810,0.372314453,0.083618164,0.90612793,-0.366210938,37.47558594,-71.22802734
643836,0.342773438,0.187011719,1.011108398,-9.826660156,33.32519531,-71.35009766
643862,0.357543945,0.220458984,1.018066406,-22.64404297,27.34375,-71.16699219
643888,0.316162109,0.127441406,1.022460938,-35.82763672,23.92578125,-62.92724609
643914,0.317993164,0.084716797,1.047729492,-19.10400391,23.01025391,-65.85693359
643940,0.292236328,0.110839844,1.068969727,-5.065917969,22.15576172,-61.5234375
643966,0.26550293,0.18347168,1.104614258,9.704589844,16.54052734,-58.89892578
643992,0.263793945,0.238647461,1.047485352,18.49365234,9.887695313,-53.16162109
644019,0.247924805,0.250732422,1.008544922,13.48876953,3.173828125,-49.74365234
644045,0.236938477,0.233764648,1.045166016,-3.479003906,-6.286621094,-46.26464844
644071,0.239013672,0.139160156,1.057373047,-0.549316406,-14.09912109,-44.61669922
644097,0.246826172,0.122680664,1.027954102,12.32910156,-18.06640625,-44.25048828
644123,0.262695313,0.191040039,0.962280273,33.87451172,-19.83642578,-43.51806641
644149,0.265991211,0.288330078,0.935302734,40.89355469,-20.81298828,-41.68701172
644176,0.270385742,0.280273438,0.914916992,37.23144531,-21.05712891,-39.79492188
644202,0.294311523,0.287109375,0.89855957,37.65869141,-20.81298828,-37.71972656
644228,0.365844727,0.329589844,0.913452148,42.90771484,-16.66259766,-35.09521484
644254,0.387451172,0.346191406,0.944213867,40.10009766,-9.033203125,-31.67724609
644280,0.374023438,0.376342773,1.018188477,24.78027344,8.850097656,-23.4375
644306,0.306030273,0.416259766,1.012573242,10.55908203,22.09472656,-13.91601563
644333,0.257080078,0.394042969,0.967163086,2.258300781,23.49853516,-12.20703125
644359,0.241088867,0.368164063,0.929077148,-0.9765625,19.16503906,-10.98632813
644385,0.240722656,0.366821289,0.954833984,1.525878906,13.61083984,-8.605957031
644411,0.208374023,0.405883789,0.975585938,4.943847656,10.7421875,-6.103515625
644437,0.193359375,0.367431641,0.955322266,-1.159667969,9.155273438,-2.136230469
644463,0.197998047,0.398925781,1.001708984,-3.112792969,7.629394531,-0.244140625
644490,0.189453125,0.458740234,1.028564453,-12.63427734,6.469726563,1.831054688
644516,0.196655273,0.385009766,1.007202148,-32.71484375,-0.549316406,8.056640625
644542,0.25402832,0.282592773,0.982666016,-34.60693359,-4.8828125,9.704589844
644568,0.239501953,0.176025391,0.958129883,-25.20751953,-6.286621094,9.948730469
644594,0.188964844,0.253295898,0.921386719,-4.150390625,-2.624511719,7.934570313
644621,0.159301758,0.237915039,0.951904297,1.037597656,2.624511719,10.7421875
644647,0.143432617,0.19909668,1.001342773,14.58740234,3.662109375,12.87841797
644673,0.144287109,0.190063477,1.013305664,43.88427734,1.647949219,11.71875
644699,0.138916016,0.346069336,0.924926758,53.34472656,0.48828125,9.948730469
644725,0.131347656,0.374145508,0.912597656,44.55566406,-0.48828125,10.68115234
644751,0.15612793,0.292480469,0.894042969,40.89355469,0.732421875,10.68115234
644777,0.163696289,0.263793945,0.919311523,47.79052734,3.845214844,4.821777344
644804,0.164306641,0.281494141,0.938354492,59.69238281,2.807617188,-3.601074219
644830,0.141601563,0.346069336,0.947387695,77.63671875,2.075195313,-6.469726563
644856,0.126464844,0.374511719,0.919189453,89.59960938,1.525878906,-9.765625
644882,0.135864258,0.431152344,0.91394043,100.3417969,-2.502441406,-16.23535156
644908,0.147949219,0.44909668,0.868286133,113.4643555,-2.9296875,-16.90673828
644934,0.137084961,0.579223633,0.825683594,142.9443359,-2.563476563,-17.39501953
644961,0.142456055,0.702880859,0.717773438,160.6445313,-4.577636719,-16.66259766
644987,0.126953125,0.843261719,0.618530273,158.3251953,-4.760742188,-11.84082031
645013,0.170410156,0.88659668,0.544799805,150.3295898,-5.065917969,-7.263183594
645039,0.16796875,0.839599609,0.51171875,140.8081055,-2.44140625,-1.953125
645066,0.161987305,0.9453125,0.411743164,145.8129883,-1.281738281,-0.061035156
645092,0.143310547,1.12878418,0.308959961,125.9765625,3.112792969,5.126953125
645118,0.15234375,1.181274414,0.291748047,74.34082031,3.112792969,13.00048828
645144,0.175415039,1.06640625,0.280883789,42.72460938,1.220703125,19.04296875
645170,0.185180664,0.90246582,0.318481445,33.08105469,2.075195313,23.49853516
645196,0.189819336,1.023193359,0.309204102,44.43359375,6.8359375,23.98681641
645223,0.195556641,1.0390625,0.267456055,40.58837891,8.422851563,25.93994141
645249,0.211914063,1.052612305,0.243408203,34.30175781,12.08496094,29.96826172
645275,0.223754883,1.077514648,0.235473633,29.78515625,14.16015625,35.76660156
645301,0.239624023,1.091430664,0.227050781,26.48925781,15.19775391,39.36767578
645327,0.260498047,1.063842773,0.201416016,19.34814453,17.63916016,45.10498047
645354,0.287231445,1.039428711,0.174804688,16.11328125,22.03369141,48.27880859
645380,0.291137695,1.062255859,0.203857422,15.56396484,25.81787109,49.49951172
645406,0.291625977,1.018066406,0.236816406,12.08496094,28.01513672,52.12402344
645432,0.297241211,0.967041016,0.217407227,5.37109375,27.70996094,51.57470703
645458,0.310058594,0.967041016,0.217651367,-1.037597656,27.83203125,51.20849609
645484,0.354614258,0.89831543,0.199707031,-8.972167969,26.85546875,51.51367188
645511,0.325073242,0.880615234,0.252319336,-13.61083984,28.74755859,46.69189453
645537,0.344238281,0.91015625,0.237792969,-23.25439453,23.74267578,42.90771484
645563,0.374145508,0.847045898,0.272216797,-37.29248047,22.09472656,42.84667969
645589,0.397583008,0.753295898,0.355712891,-29.78515625,21.30126953,41.25976563
645615,0.400756836,0.862792969,0.352294922,-24.84130859,18.06640625,39.24560547
645642,0.447509766,0.842895508,0.346557617,-34.72900391,15.25878906,39.00146484
645668,0.479125977,0.76965332,0.403564453,-33.44726563,16.47949219,36.80419922
645694,0.470092773,0.805175781,0.415771484,-27.89306641,17.27294922,34.30175781
645720,0.485595703,0.784667969,0.431884766,-32.40966797,15.31982422,33.81347656
645746,0.499023438,0.751708984,0.428833008,-33.08105469,14.95361328,33.14208984
645772,0.509765625,0.715576172,0.461669922,-29.05273438,18.12744141,30.51757813
645799,0.500244141,0.694213867,0.490234375,-34.91210938,13.30566406,27.89306641
645825,0.499389648,0.666381836,0.497924805,-34.91210938,11.65771484,27.34375
645851,0.507324219,0.646972656,0.493164063,-30.15136719,10.31494141,25.75683594
645877,0.499633789,0.633666992,0.533447266,-27.34375,10.55908203,23.74267578
645903,0.487792969,0.607543945,0.559814453,-27.03857422,6.469726563,20.93505859
