timestamp,ax,ay,az,gx,gy,gz
792307,0.028442383,0.960693359,0.203369141,47.60742188,-2.014160156,-15.07568359
792334,0.010009766,0.998901367,0.210693359,40.16113281,-3.723144531,-19.22607422
792359,0.002441406,1.025878906,0.205810547,32.04345703,-7.8125,-19.71435547
792385,-0.00378418,1.032470703,0.190551758,24.78027344,-10.07080078,-20.08056641
792411,-0.021850586,1.065307617,0.17199707,26.73339844,-14.77050781,-14.34326172
792437,-0.014770508,1.040283203,0.168457031,25.26855469,-15.86914063,-11.53564453
792463,-0.016479492,1.046020508,0.129516602,30.39550781,-14.09912109,-10.86425781
792489,-0.022216797,1.0625,0.130615234,29.11376953,-11.47460938,-11.59667969
792515,-0.003173828,1.044921875,0.081420898,22.82714844,-17.88330078,-6.713867188
792541,-0.010864258,1.048583984,0.072021484,14.70947266,-16.90673828,-8.056640625
792567,-0.010498047,1.014404297,0.059814453,14.22119141,-14.03808594,-6.530761719
792593,-0.009765625,1.022216797,0.045166016,15.31982422,-12.02392578,-5.737304688
792619,0.000244141,1.005859375,0.052124023,12.20703125,-14.03808594,-2.136230469
792646,-0.001586914,1.002929688,0.05065918,12.93945313,-12.20703125,-2.868652344
792672,0.002685547,1.008422852,0.034301758,12.02392578,-13.12255859,-3.356933594
792698,0.000854492,1.02746582,0.02722168,9.704589844,-11.90185547,-6.530761719
792724,0.014404297,1.080688477,0.048706055,4.638671875,-9.826660156,-6.164550781
792750,0.031494141,1.119506836,0.059692383,1.342773438,-8.911132813,-4.333496094
792776,0.038696289,1.147338867,0.08581543,0.244140625,-8.056640625,-2.075195313
792803,0.011474609,1.169799805,0.083862305,2.502441406,-7.873535156,5.126953125
792829,0.009643555,1.195800781,0.079223633,-1.525878906,-9.887695313,9.765625
792855,0.033203125,1.188720703,0.096313477,-14.89257813,-12.57324219,13.79394531
792881,0.037475586,1.16027832,0.110839844,-23.55957031,-9.338378906,18.18847656
792907,0.044433594,1.161743164,0.113525391,-28.07617188,-7.8125,20.14160156
792934,0.03894043,1.158691406,0.139892578,-38.51318359,-9.094238281,21.05712891
792960,0.045898438,1.134033203,0.165771484,-51.14746094,-8.972167969,22.15576172
792986,0.056152344,1.105957031,0.187133789,-58.16650391,-8.483886719,23.55957031
793012,0.06652832,1.07409668,0.209960938,-68.11523438,-8.605957031,24.10888672
793038,0.091918945,1.004150391,0.24206543,-78.55224609,-9.643554688,24.78027344
793064,0.114257813,0.968261719,0.262573242,-85.75439453,-6.34765625,20.62988281
793090,0.141967773,0.902709961,0.29699707,-91.00341797,-2.258300781,15.74707031
793117,0.145263672,0.850341797,0.342407227,-95.52001953,3.295898438,6.774902344
793143,0.117431641,0.835083008,0.345581055,-91.24755859,6.286621094,-1.708984375
793169,0.089233398,0.814208984,0.374511719,-84.77783203,6.713867188,-4.943847656
793196,0.079956055,0.815795898,0.416381836,-73.54736328,8.850097656,-7.690429688
793222,0.076782227,0.804321289,0.448974609,-66.83349609,9.27734375,-9.033203125
793248,0.082397461,0.788208008,0.473999023,-66.65039063,8.30078125,-8.605957031
793274,0.07043457,0.796020508,0.534912109,-66.65039063,8.178710938,-8.178710938
793300,0.060668945,0.801269531,0.573242188,-66.16210938,5.187988281,-7.873535156
793327,0.056274414,0.781616211,0.586303711,-62.31689453,2.868652344,-6.958007813
793353,0.069091797,0.751586914,0.63659668,-51.14746094,3.845214844,-3.540039063
793379,0.040405273,0.787719727,0.670410156,-48.95019531,6.103515625,-1.953125
793405,0.036132813,0.786621094,0.684570313,-55.84716797,2.685546875,-0.610351563
793431,0.035400391,0.749267578,0.710083008,-64.453125,-0.854492188,2.807617188
793458,0.035522461,0.72265625,0.743652344,-63.78173828,0.427246094,6.591796875
793484,0.031005859,0.71862793,0.752319336,-65.36865234,-1.220703125,8.422851563
793510,0.051757813,0.640136719,0.77722168,-68.48144531,-1.953125,12.02392578
793536,0.053344727,0.58984375,0.80078125,-57.98339844,1.46484375,16.29638672
793562,0.033569336,0.606201172,0.830688477,-54.01611328,2.380371094,16.66259766
793588,0.032470703,0.570922852,0.843017578,-63.90380859,-4.150390625,18.06640625
793615,0.075561523,0.447631836,0.832885742,-66.16210938,-1.525878906,20.75195313
793641,0.078735352,0.420776367,0.852172852,-47.91259766,10.80322266,21.91162109
793667,0.055053711,0.465209961,0.876831055,-33.14208984,15.80810547,23.13232422
793693,0.04309082,0.469116211,0.899291992,-48.09570313,4.150390625,23.25439453
793719,0.067626953,0.406494141,0.884643555,-57.55615234,0.793457031,21.60644531
793745,0.069335938,0.33984375,0.899414063,-56.94580078,4.150390625,20.99609375
793771,0.062866211,0.320922852,0.928222656,-57.49511719,4.577636719,20.75195313
793798,0.075683594,0.287841797,0.914428711,-62.43896484,1.953125,18.85986328
793824,0.096557617,0.193969727,0.890380859,-64.14794922,2.075195313,17.51708984
793850,0.077758789,0.168823242,0.898071289,-56.51855469,4.760742188,15.01464844
793876,0.066040039,0.171142578,0.905029297,-56.82373047,4.333496094,12.51220703
793902,0.067260742,0.131103516,0.905029297,-60.91308594,4.211425781,10.86425781
793928,0.056640625,0.079223633,0.897583008,-60.24169922,5.432128906,10.25390625
793955,0.063354492,0.038452148,0.911743164,-47.05810547,13.00048828,11.41357422
793981,0.02722168,0.076904297,0.955688477,-43.39599609,14.40429688,10.86425781
794007,-0.006713867,0.111083984,0.970214844,-58.16650391,8.7890625,8.728027344
794033,0.018310547,0.002929688,0.942871094,-64.33105469,9.704589844,9.521484375
794059,0.018798828,-0.074829102,0.953491211,-48.40087891,11.65771484,14.28222656
794085,-0.014526367,-0.010498047,0.999511719,-39.85595703,11.65771484,14.52636719
794112,-0.030639648,0.002441406,0.979125977,-59.32617188,-0.305175781,13.48876953
794138,-0.020019531,-0.08203125,0.942260742,-73.73046875,-7.507324219,14.22119141
794164,0.019897461,-0.233642578,0.969482422,-58.65478516,1.281738281,14.22119141
794190,-0.002319336,-0.177734375,0.981689453,-37.04833984,3.479003906,19.04296875
794216,-0.01965332,-0.135131836,0.987182617,-39.18457031,0.793457031,15.93017578
794242,-0.023071289,-0.166870117,0.96472168,-58.28857422,-9.704589844,16.90673828
794268,0.019042969,-0.326171875,0.949829102,-59.14306641,-5.737304688,15.19775391
794295,-0.016235352,-0.313598633,0.957885742,-39.0625,2.136230469,16.78466797
794321,-0.030029297,-0.270385742,0.971801758,-23.49853516,4.638671875,18.37158203
794347,-0.038085938,-0.252319336,0.960205078,-33.26416016,-5.493164063,16.6015625
794373,-0.048217773,-0.256225586,0.936035156,-45.77636719,-12.63427734,15.13671875
794399,-0.019042969,-0.335205078,0.913452148,-61.27929688,-19.22607422,18.18847656
794426,-0.014526367,-0.388183594,0.885375977,-59.50927734,-15.99121094,20.87402344
794452,-0.011230469,-0.393798828,0.862670898,-56.21337891,-13.85498047,26.48925781
794478,-0.029052734,-0.419189453,0.854614258,-57.49511719,-8.422851563,36.68212891
794505,-0.045898438,-0.474609375,0.849243164,-55.90820313,-8.605957031,30.2734375
794531,-0.037109375,-0.505249023,0.815673828,-48.64501953,-8.911132813,26.18408203
794557,-0.051757813,-0.489379883,0.809448242,-36.31591797,-6.042480469,26.48925781
794583,-0.075561523,-0.509399414,0.797241211,-29.05273438,-3.112792969,26.00097656
794609,-0.080566406,-0.504638672,0.776123047,-23.07128906,-2.502441406,25.87890625
794636,-0.10168457,-0.513061523,0.774169922,-15.01464844,-0.48828125,24.4140625
794662,-0.118041992,-0.498535156,0.775512695,-12.26806641,1.281738281,26.12304688
794688,-0.124511719,-0.506469727,0.771240234,-30.45654297,1.525878906,30.02929688
794714,-0.131225586,-0.546264648,0.764526367,-17.51708984,1.831054688,28.44238281
794740,-0.14831543,-0.571655273,0.784912109,-14.34326172,3.356933594,26.61132813
794766,-0.162597656,-0.573364258,0.803588867,-9.27734375,3.051757813,26.85546875
794793,-0.184570313,-0.590454102,0.801391602,-8.544921875,1.892089844,25.69580078
794819,-0.1953125,-0.591186523,0.790649414,-6.530761719,-0.549316406,22.70507813
794845,-0.201416016,-0.611206055,0.803833008,-2.807617188,-0.183105469,20.75195313
794871,-0.211181641,-0.6015625,0.809936523,0.427246094,-1.037597656,19.04296875
794897,-0.222290039,-0.55847168,0.796142578,1.525878906,-5.310058594,14.09912109
794923,-0.225219727,-0.566894531,0.783935547,-0.854492188,-7.751464844,11.65771484
794950,-0.223144531,-0.569946289,0.786132813,0.183105469,-7.507324219,10.62011719
794976,-0.230712891,-0.555908203,0.781005859,1.220703125,-5.859375,10.19287109
795002,-0.228149414,-0.55090332,0.771850586,1.281738281,-6.225585938,8.7890625
795028,-0.23059082,-0.561889648,0.775268555,1.770019531,-5.615234375,7.263183594
795055,-0.239624023,-0.549682617,0.790893555,2.990722656,-3.723144531,5.920410156
795081,-0.245361328,-0.555175781,0.79296875,1.037597656,-4.089355469,5.004882813
795107,-0.246826172,-0.558227539,0.802490234,-0.732421875,-4.516601563,3.845214844
795133,-0.23840332,-0.575683594,0.787475586,-0.854492188,-5.615234375,2.319335938
795159,-0.238037109,-0.566040039,0.8046875,0.671386719,-5.981445313,0.244140625
795186,-0.242675781,-0.545898438,0.811401367,1.586914063,-6.469726563,-1.403808594
795212,-0.234375,-0.539306641,0.798461914,-0.854492188,-6.774902344,-3.051757813
795238,-0.233154297,-0.545288086,0.792724609,-2.319335938,-7.019042969,-3.356933594
795264,-0.23425293,-0.538085938,0.791137695,-1.098632813,-6.774902344,-3.356933594
795290,-0.238525391,-0.537109375,0.811035156,-0.427246094,-6.896972656,-3.479003906
795317,-0.241821289,-0.542602539,0.820556641,-0.366210938,-7.507324219,-3.540039063
795343,-0.245727539,-0.557617188,0.82824707,0.061035156,-7.446289063,-3.112792969
795369,-0.237426758,-0.575683594,0.827636719,2.807617188,-9.582519531,-3.723144531
795395,-0.221801758,-0.529785156,0.811401367,3.479003906,-16.96777344,-5.859375
795421,-0.199951172,-0.526977539,0.788452148,0.549316406,-17.70019531,-6.286621094
795448,-0.19128418,-0.529785156,0.756347656,0.427246094,-15.13671875,-5.493164063
795474,-0.184326172,-0.499633789,0.741210938,-0.183105469,-13.54980469,-3.41796875
795500,-0.184814453,-0.501464844,0.755126953,-1.525878906,-9.582519531,-1.647949219
795526,-0.184204102,-0.512939453,0.764892578,-2.502441406,-6.896972656,0
795552,-0.202148438,-0.513061523,0.759521484,-6.530761719,-5.187988281,1.037597656
795579,-0.202880859,-0.548828125,0.772949219,-12.51220703,-5.798339844,2.197265625
795605,-0.214355469,-0.571411133,0.789916992,-13.97705078,-6.286621094,1.770019531
795631,-0.217285156,-0.627197266,0.808349609,-10.37597656,-8.117675781,0.610351563
795657,-0.215576172,-0.589355469,0.797973633,-1.037597656,-11.23046875,-1.586914063
795683,-0.204101563,-0.560058594,0.779418945,-3.234863281,-11.35253906,-2.258300781
795710,-0.196289063,-0.575073242,0.774902344,-10.98632813,-11.47460938,-2.990722656
795736,-0.181518555,-0.632446289,0.759277344,-5.920410156,-10.13183594,-3.295898438
795762,-0.192382813,-0.590087891,0.761352539,2.197265625,-8.7890625,-4.638671875
795788,-0.197265625,-0.560424805,0.767700195,5.065917969,-7.263183594,-4.943847656
795814,-0.194946289,-0.558227539,0.754638672,-0.854492188,-3.540039063,-4.8828125
795841,-0.201782227,-0.581542969,0.766845703,-2.624511719,-1.159667969,-4.455566406
795867,-0.201171875,-0.5859375,0.770874023,2.44140625,-3.295898438,-3.967285156
795893,-0.201049805,-0.564819336,0.7734375,6.164550781,-7.202148438,-4.699707031
795919,-0.192016602,-0.568237305,0.755371094,5.737304688,-6.591796875,-4.089355469
795946,-0.185913086,-0.590942383,0.761352539,5.126953125,-3.112792969,-3.845214844
795972,-0.183105469,-0.588012695,0.779907227,9.033203125,-3.601074219,-4.333496094
795998,-0.18762207,-0.560424805,0.773925781,9.948730469,-3.112792969,-5.249023438
796025,-0.189575195,-0.551635742,0.764160156,4.699707031,-3.479003906,-5.249023438
796051,-0.187255859,-0.571044922,0.773803711,2.746582031,-4.8828125,-4.638671875
796077,-0.188354492,-0.556274414,0.780639648,4.39453125,-5.37109375,-4.455566406
796103,-0.191040039,-0.548461914,0.786132813,4.516601563,-5.37109375,-4.333496094
796129,-0.190063477,-0.547973633,0.778564453,2.014160156,-3.41796875,-3.540039063
796156,-0.193359375,-0.557128906,0.772705078,1.831054688,-1.953125,-2.685546875
796182,-0.197753906,-0.549560547,0.785766602,2.380371094,-2.014160156,-2.197265625
796208,-0.205078125,-0.544677734,0.7890625,3.479003906,-2.746582031,-1.831054688
796234,-0.20300293,-0.566162109,0.794555664,5.065917969,-1.281738281,-0.610351563
796260,-0.204101563,-0.553710938,0.784790039,8.7890625,-0.671386719,0.244140625
796287,-0.210205078,-0.515258789,0.790893555,4.943847656,-1.159667969,0.366210938
796313,-0.206176758,-0.554077148,0.795898438,-2.746582031,-3.601074219,0.305175781
796339,-0.202514648,-0.583129883,0.78918457,-2.014160156,-3.356933594,0.427246094
796365,-0.204956055,-0.565551758,0.780639648,3.112792969,-8.422851563,-0.549316406
796392,-0.20300293,-0.541870117,0.775512695,0.122070313,-8.30078125,-2.075195313
796418,-0.210205078,-0.554199219,0.784912109,-3.845214844,-5.004882813,-1.586914063
796444,-0.217407227,-0.573852539,0.782836914,-3.356933594,-5.920410156,-1.770019531
796470,-0.211914063,-0.561645508,0.772094727,-1.220703125,-9.704589844,-2.258300781
796496,-0.199584961,-0.567260742,0.756225586,-1.220703125,-9.521484375,-2.319335938
796522,-0.202270508,-0.578857422,0.751342773,0.671386719,-7.873535156,-2.746582031
796549,-0.208496094,-0.555541992,0.780883789,3.845214844,-4.699707031,-2.685546875
796575,-0.210327148,-0.547119141,0.792602539,4.943847656,-2.990722656,-2.197265625
796601,-0.212036133,-0.540893555,0.78112793,3.479003906,-1.037597656,-1.770019531
796627,-0.209594727,-0.557495117,0.780883789,1.770019531,-3.295898438,-0.854492188
796653,-0.207763672,-0.563720703,0.779418945,1.342773438,-3.967285156,-1.281738281
796680,-0.218994141,-0.555908203,0.791870117,2.014160156,-4.516601563,-2.258300781
796706,-0.214233398,-0.552490234,0.79296875,1.037597656,-4.638671875,-2.685546875
796732,-0.220581055,-0.559326172,0.787353516,1.220703125,-3.784179688,-2.624511719
796758,-0.21862793,-0.553955078,0.779907227,2.014160156,-5.432128906,-2.685546875
796785,-0.214477539,-0.550292969,0.778442383,1.098632813,-5.249023438,-2.624511719
796811,-0.216186523,-0.541015625,0.781738281,-0.366210938,-4.577636719,-2.502441406
796837,-0.213989258,-0.556518555,0.774536133,-0.9765625,-5.187988281,-2.380371094
796863,-0.212036133,-0.543823242,0.765258789,-2.44140625,-6.713867188,-1.892089844
796889,-0.216064453,-0.545776367,0.766357422,-4.760742188,-6.652832031,-1.586914063
796916,-0.208862305,-0.573364258,0.770019531,-3.601074219,-5.432128906,-1.46484375
796942,-0.213256836,-0.575683594,0.766845703,1.525878906,-4.516601563,-1.586914063
796968,-0.212280273,-0.558959961,0.755493164,2.9296875,-4.333496094,-1.831054688
796994,-0.209472656,-0.551147461,0.750732422,2.868652344,-2.624511719,-1.770019531
797020,-0.225708008,-0.550415039,0.755981445,4.028320313,-0.122070313,-1.281738281
797047,-0.228515625,-0.555419922,0.768188477,3.479003906,-1.220703125,0.061035156
797073,-0.227172852,-0.56262207,0.786132813,2.380371094,-0.122070313,0.549316406
797099,-0.243408203,-0.583984375,0.828491211,1.220703125,1.342773438,-0.122070313
797125,-0.247802734,-0.582275391,0.81628418,2.746582031,-3.479003906,-2.563476563
797151,-0.245727539,-0.573242188,0.807373047,2.502441406,-5.310058594,-3.723144531
797178,-0.245727539,-0.550415039,0.810913086,1.342773438,-7.507324219,-5.126953125
797204,-0.233276367,-0.544433594,0.781494141,1.342773438,-10.43701172,-5.432128906
797230,-0.224731445,-0.531738281,0.754516602,1.220703125,-10.55908203,-4.943847656
797256,-0.218383789,-0.528686523,0.748535156,0.732421875,-7.995605469,-3.601074219
797283,-0.220336914,-0.545288086,0.758789063,0.244140625,-4.272460938,-2.197265625
797309,-0.226928711,-0.5625,0.766723633,1.281738281,-2.136230469,-1.525878906
797335,-0.225952148,-0.58215332,0.768798828,4.272460938,-2.197265625,-1.770019531
797361,-0.225341797,-0.589477539,0.779052734,8.972167969,-2.258300781,-2.502441406
797387,-0.232177734,-0.561035156,0.785400391,11.71875,-2.014160156,-3.295898438
797414,-0.236083984,-0.50390625,0.787963867,4.211425781,-4.333496094,-3.540039063
797440,-0.218017578,-0.547485352,0.776367188,-3.295898438,-6.958007813,-3.051757813
797466,-0.221069336,-0.565551758,0.778076172,0.793457031,-7.263183594,-2.685546875
797492,-0.225463867,-0.530395508,0.775878906,4.028320313,-8.850097656,-2.868652344
797518,-0.225219727,-0.519775391,0.772827148,0.732421875,-5.554199219,-2.197265625
797545,-0.229614258,-0.534912109,0.775878906,-0.122070313,-0.244140625,-0.549316406
797571,-0.243530273,-0.541381836,0.786132813,2.319335938,-1.403808594,0.183105469
797597,-0.244506836,-0.536254883,0.784301758,2.44140625,-4.272460938,0.122070313
797623,-0.250244141,-0.551757813,0.792114258,0.061035156,-4.699707031,0.122070313
797649,-0.255981445,-0.57409668,0.799804688,-0.122070313,-5.554199219,0.244140625
797676,-0.254272461,-0.582763672,0.81237793,2.502441406,-7.873535156,-0.610351563
797702,-0.248046875,-0.575073242,0.798583984,2.807617188,-8.178710938,-2.685546875
797728,-0.240966797,-0.569824219,0.787841797,2.807617188,-8.422851563,-4.150390625
797754,-0.231201172,-0.547851563,0.774780273,1.708984375,-10.37597656,-5.920410156
797780,-0.223632813,-0.53515625,0.757568359,1.342773438,-10.37597656,-6.530761719
797807,-0.220825195,-0.526489258,0.751953125,1.647949219,-9.033203125,-5.981445313
797833,-0.216918945,-0.518310547,0.751098633,1.525878906,-5.920410156,-4.272460938
797859,-0.216186523,-0.528686523,0.758544922,0.48828125,-2.014160156,-2.44140625
797885,-0.225585938,-0.541137695,0.772216797,1.037597656,0.366210938,-1.46484375
797911,-0.235351563,-0.549804688,0.793334961,1.708984375,-1.098632813,-1.159667969
797938,-0.23815918,-0.561645508,0.807617188,1.037597656,-2.807617188,-1.403808594
797964,-0.236572266,-0.571777344,0.800292969,1.831054688,-4.333496094,-1.892089844
797990,-0.236938477,-0.55847168,0.799316406,2.685546875,-6.896972656,-3.112792969
798016,-0.235961914,-0.546508789,0.799926758,2.197265625,-7.629394531,-3.723144531
798042,-0.23815918,-0.547729492,0.800048828,2.075195313,-7.141113281,-3.662109375
798068,-0.244750977,-0.532470703,0.795776367,2.319335938,-7.019042969,-3.662109375
798095,-0.231933594,-0.53515625,0.78125,-0.366210938,-8.483886719,-3.356933594
798121,-0.228515625,-0.545654297,0.776855469,-0.122070313,-8.7890625,-3.41796875
798147,-0.229736328,-0.536010742,0.778320313,1.892089844,-9.399414063,-3.295898438
798173,-0.228637695,-0.53137207,0.774414063,0.061035156,-8.239746094,-2.380371094
798199,-0.229003906,-0.551757813,0.776123047,-0.305175781,-5.981445313,-1.708984375
798226,-0.232666016,-0.557250977,0.78137207,0.854492188,-6.164550781,-1.892089844
798252,-0.229248047,-0.553833008,0.783935547,0.854492188,-7.385253906,-2.563476563
798278,-0.234741211,-0.555175781,0.78515625,0.183105469,-8.30078125,-3.234863281
798304,-0.228881836,-0.567626953,0.790771484,0.732421875,-8.666992188,-3.356933594
798331,-0.219360352,-0.548339844,0.786132813,2.44140625,-9.27734375,-4.028320313
798357,-0.210693359,-0.540527344,0.777832031,0.610351563,-7.995605469,-4.821777344
798383,-0.207275391,-0.545410156,0.766967773,0.48828125,-7.629394531,-4.760742188
798409,-0.207885742,-0.535400391,0.763305664,1.586914063,-6.8359375,-3.90625
798435,-0.209594727,-0.527832031,0.759277344,0.48828125,-5.004882813,-2.9296875
798461,-0.219238281,-0.534057617,0.776855469,-0.793457031,-2.868652344,-2.136230469
798488,-0.223754883,-0.558227539,0.780029297,0.366210938,-2.502441406,-1.403808594
798514,-0.225952148,-0.547973633,0.778320313,1.953125,-3.662109375,-1.770019531
798540,-0.226318359,-0.545166016,0.787719727,0.854492188,-4.211425781,-2.075195313
798566,-0.23046875,-0.563842773,0.799682617,0.305175781,-3.784179688,-2.258300781
798592,-0.225952148,-0.553833008,0.784179688,2.502441406,-6.958007813,-2.624511719
798619,-0.223510742,-0.543701172,0.779052734,1.281738281,-6.774902344,-2.868652344
798645,-0.224609375,-0.556030273,0.781860352,0.244140625,-5.187988281,-2.9296875
798671,-0.23046875,-0.543823242,0.777954102,2.380371094,-6.042480469,-3.173828125
798697,-0.223144531,-0.534545898,0.766113281,1.46484375,-7.141113281,-2.868652344
798723,-0.221435547,-0.559204102,0.764892578,0.793457031,-5.493164063,-2.502441406
798750,-0.226928711,-0.543212891,0.769897461,2.624511719,-6.225585938,-2.502441406
798776,-0.224731445,-0.542724609,0.766845703,1.586914063,-6.042480469,-2.563476563
798802,-0.226318359,-0.553222656,0.780883789,0.549316406,-3.356933594,-2.136230469
798828,-0.223999023,-0.551635742,0.77734375,2.258300781,-5.432128906,-2.624511719
798855,-0.223144531,-0.54699707,0.774902344,2.746582031,-5.798339844,-2.685546875
798881,-0.225952148,-0.541259766,0.776977539,0.549316406,-5.004882813,-2.197265625
798907,-0.223022461,-0.559936523,0.782592773,0.610351563,-5.065917969,-2.258300781
798933,-0.23059082,-0.555297852,0.782714844,1.770019531,-5.126953125,-2.502441406
798959,-0.224731445,-0.541870117,0.773071289,0.427246094,-5.737304688,-3.112792969
798985,-0.225952148,-0.562011719,0.776123047,-1.46484375,-4.577636719,-2.868652344
799012,-0.227050781,-0.561889648,0.777099609,2.624511719,-4.699707031,-2.685546875
799038,-0.230834961,-0.530029297,0.782470703,3.479003906,-5.310058594,-2.807617188
799064,-0.224121094,-0.545532227,0.770874023,-1.159667969,-4.39453125,-2.44140625
799090,-0.22644043,-0.562011719,0.777709961,0.061035156,-4.821777344,-1.892089844
799116,-0.228393555,-0.563110352,0.770141602,2.9296875,-5.249023438,-2.014160156
799142,-0.224243164,-0.547241211,0.764892578,3.234863281,-5.859375,-2.319335938
799169,-0.224609375,-0.591430664,0.769775391,2.380371094,-2.746582031,-2.502441406
799195,-0.235107422,-0.56262207,0.774780273,3.90625,-2.502441406,-2.868652344
799221,-0.239135742,-0.528808594,0.774291992,3.967285156,-4.760742188,-3.90625
799247,-0.22644043,-0.54284668,0.755615234,-0.122070313,-8.056640625,-4.699707031
799273,-0.222045898,-0.560668945,0.762451172,0.366210938,-7.934570313,-4.39453125
799300,-0.232055664,-0.531738281,0.787353516,4.39453125,-7.263183594,-3.845214844
799326,-0.227416992,-0.532714844,0.781738281,0.915527344,-4.699707031,-2.746582031
799352,-0.227905273,-0.551147461,0.787963867,-0.915527344,-1.46484375,-2.075195313
799378,-0.237426758,-0.556640625,0.805053711,1.647949219,-2.502441406,-1.831054688
799404,-0.238037109,-0.543579102,0.805175781,2.990722656,-5.432128906,-2.685546875
799431,-0.234741211,-0.541625977,0.794067383,1.525878906,-5.981445313,-2.868652344
799457,-0.235229492,-0.555175781,0.787597656,1.220703125,-6.896972656,-3.112792969
799483,-0.231201172,-0.546875,0.771728516,3.295898438,-7.32421875,-3.173828125
799509,-0.23059082,-0.524414063,0.768066406,1.708984375,-6.896972656,-3.41796875
799535,-0.224731445,-0.554077148,0.767456055,-0.427246094,-6.103515625,-3.356933594
799562,-0.230957031,-0.550537109,0.766479492,2.197265625,-5.676269531,-2.746582031
799588,-0.227539063,-0.540527344,0.766235352,2.197265625,-7.446289063,-3.051757813
799614,-0.221069336,-0.551635742,0.770629883,-0.305175781,-4.760742188,-2.807617188
799640,-0.227172852,-0.556518555,0.779052734,1.342773438,-5.432128906,-2.685546875
799666,-0.227294922,-0.544555664,0.7734375,2.746582031,-6.713867188,-2.9296875
799693,-0.224853516,-0.544921875,0.770507813,0.9765625,-5.249023438,-2.685546875
799719,-0.230834961,-0.541992188,0.77746582,-0.244140625,-4.943847656,-2.990722656
799745,-0.227783203,-0.552490234,0.778320313,0.610351563,-6.042480469,-2.807617188
799771,-0.234619141,-0.541015625,0.781860352,2.258300781,-4.8828125,-2.685546875
799797,-0.230957031,-0.547729492,0.78112793,0.915527344,-5.676269531,-2.502441406
799824,-0.228515625,-0.555664063,0.776855469,1.892089844,-4.699707031,-2.502441406
799850,-0.229736328,-0.54284668,0.77734375,2.807617188,-5.737304688,-2.380371094
799876,-0.227050781,-0.544067383,0.771362305,1.342773438,-6.469726563,-2.624511719
799902,-0.226196289,-0.555175781,0.777954102,1.708984375,-5.432128906,-2.44140625
799928,-0.231567383,-0.541748047,0.773681641,2.319335938,-6.774902344,-2.624511719
799955,-0.22668457,-0.542358398,0.775268555,1.403808594,-5.981445313,-2.380371094
799981,-0.23425293,-0.546264648,0.786865234,1.525878906,-4.943847656,-2.075195313
800007,-0.232543945,-0.551147461,0.783691406,1.342773438,-6.34765625,-2.136230469
800033,-0.232299805,-0.549072266,0.778442383,1.220703125,-5.981445313,-2.685546875
800059,-0.234130859,-0.552368164,0.790161133,0.671386719,-6.34765625,-3.112792969
800086,-0.233154297,-0.546875,0.78527832,1.46484375,-6.774902344,-3.295898438
800112,-0.232910156,-0.533203125,0.776245117,1.159667969,-6.652832031,-3.112792969
800138,-0.225952148,-0.55480957,0.774536133,0.48828125,-6.408691406,-2.746582031
800164,-0.225830078,-0.556884766,0.772827148,1.342773438,-6.34765625,-2.868652344
800190,-0.224609375,-0.539794922,0.768310547,2.502441406,-7.385253906,-3.295898438
800216,-0.224365234,-0.549072266,0.778320313,1.159667969,-5.249023438,-2.746582031
800242,-0.220947266,-0.555419922,0.771362305,2.258300781,-5.432128906,-2.807617188
800268,-0.219360352,-0.557495117,0.762817383,5.554199219,-6.103515625,-3.356933594
800294,-0.218505859,-0.571655273,0.768554688,8.544921875,-3.723144531,-3.540039063
800321,-0.222167969,-0.590087891,0.777709961,12.20703125,-1.892089844,-4.150390625
800347,-0.226928711,-0.591064453,0.774047852,21.36230469,0.48828125,-5.493164063
800373,-0.231323242,-0.627075195,0.771484375,31.86035156,2.258300781,-7.8125
800399,-0.229492188,-0.659545898,0.794799805,45.10498047,3.662109375,-9.887695313
800426,-0.254516602,-0.586791992,0.819580078,64.20898438,3.173828125,-14.28222656
800452,-0.262451172,-0.507080078,0.815429688,72.02148438,2.319335938,-19.71435547
800479,-0.248168945,-0.492919922,0.795043945,72.99804688,3.601074219,-20.5078125
800505,-0.250366211,-0.470825195,0.794433594,82.21435547,8.422851563,-20.81298828
800531,-0.257080078,-0.348510742,0.804199219,89.05029297,-1.220703125,-24.96337891
800557,-0.259887695,-0.28503418,0.820678711,79.89501953,-9.155273438,-27.95410156
800583,-0.23449707,-0.304321289,0.854492188,77.20947266,-8.728027344,-26.42822266
800609,-0.248657227,-0.28515625,0.868774414,94.29931641,-8.422851563,-22.58300781
800636,-0.252563477,-0.151367188,0.846679688,102.4169922,-18.24951172,-19.28710938
800662,-0.225463867,-0.031738281,0.881835938,89.23339844,-16.35742188,-18.24951172
800688,-0.224243164,-0.10546875,0.926269531,81.23779297,-15.625,-18.24951172
800714,-0.232055664,-0.075927734,0.886474609,95.03173828,-18.73779297,-10.13183594
800740,-0.225463867,0.036010742,0.887329102,104.0649414,-21.24023438,-7.446289063
800767,-0.225219727,0.155029297,0.942138672,92.10205078,-28.44238281,-5.37109375
800792,-0.20703125,0.03503418,0.944580078,85.9375,-27.64892578,-4.39453125
800818,-0.214599609,0.111206055,0.920166016,96.49658203,-28.68652344,0.305175781
800845,-0.192626953,0.217895508,0.942504883,96.13037109,-35.70556641,3.112792969
800871,-0.172729492,0.163330078,0.968017578,90.39306641,-39.0625,2.136230469
800897,-0.155517578,0.170166016,0.944213867,95.94726563,-41.93115234,4.333496094
800923,-0.116699219,0.26940918,0.880493164,104.309082,-52.49023438,5.554199219
800950,-0.097045898,0.324462891,0.883911133,104.309082,-62.07275391,3.356933594
800976,-0.056762695,0.327758789,0.880615234,104.9804688,-70.19042969,4.699707031
801002,0.021972656,0.356933594,0.793823242,111.328125,-80.38330078,6.164550781
801028,0.060913086,0.436889648,0.723754883,120.4223633,-84.04541016,3.234863281
801054,0.103271484,0.475708008,0.67578125,124.9389648,-81.84814453,0.610351563
801080,0.150878906,0.513061523,0.592041016,128.3569336,-82.94677734,0
801106,0.20300293,0.569580078,0.510375977,130.3710938,-83.92333984,-4.333496094
801133,0.224975586,0.668457031,0.471679688,134.2773438,-81.29882813,-7.141113281
801159,0.216552734,0.806152344,0.483154297,134.2163086,-73.12011719,-10.98632813
801185,0.208862305,0.87512207,0.432373047,127.4414063,-69.51904297,-11.41357422
801211,0.268066406,0.918212891,0.34753418,118.4082031,-70.3125,-13.91601563
801237,0.258544922,0.986450195,0.289550781,108.8256836,-69.15283203,-21.78955078
801264,0.265380859,1.045776367,0.322875977,101.2573242,-63.72070313,-29.17480469
801290,0.231811523,1.067138672,0.297729492,99.97558594,-55.23681641,-32.65380859
801316,0.202636719,1.029174805,0.225585938,94.66552734,-47.60742188,-31.00585938
801342,0.19140625,1.130371094,0.21472168,85.26611328,-47.42431641,-29.17480469
801368,0.217651367,1.126342773,0.199829102,74.15771484,-47.11914063,-29.54101563
801394,0.354614258,1.178222656,0.130737305,60.05859375,-38.45214844,-36.43798828
801421,0.254150391,1.237304688,0.210571289,27.58789063,-12.39013672,-58.04443359
801447,0.097167969,1.093505859,0.167358398,20.69091797,-2.746582031,-53.64990234
801473,0.036621094,1.115234375,0.030395508,19.47021484,-6.469726563,-36.49902344
801499,0.09753418,1.087158203,0.043579102,1.220703125,-19.65332031,-27.28271484
801525,0.155395508,1.040283203,0.060668945,-5.310058594,-17.94433594,-23.74267578
801552,0.14465332,0.965209961,0.017333984,-2.9296875,-12.32910156,-26.12304688
801578,0.081542969,0.920532227,-0.077392578,6.591796875,-4.821777344,-29.11376953
801604,0.06237793,0.908813477,-0.125732422,4.272460938,-3.051757813,-33.32519531
801630,0.108764648,0.837280273,-0.185668945,-3.41796875,-2.319335938,-38.87939453
801656,-0.004760742,0.955932617,-0.022460938,0.610351563,6.774902344,-46.56982422
801682,-0.043945313,1.121337891,0.127197266,8.850097656,15.38085938,-40.46630859
801708,0.005249023,1.15637207,0.202758789,6.591796875,22.82714844,-37.90283203
801735,-0.076538086,1.224487305,0.255493164,0.915527344,28.13720703,-33.02001953
801761,-0.089599609,1.200073242,0.204711914,-4.8828125,15.25878906,-23.31542969
801787,-0.099121094,1.184936523,0.224243164,-6.408691406,5.432128906,-18.98193359
801813,-0.101074219,1.123291016,0.231689453,-0.854492188,-1.46484375,-11.84082031
801839,-0.113037109,1.072265625,0.146118164,2.990722656,-5.249023438,-5.798339844
801865,-0.116333008,1.032714844,0.103515625,2.746582031,-9.27734375,-3.845214844
801892,-0.071899414,0.961181641,0.054077148,4.8828125,-14.34326172,-2.136230469
801918,-0.089233398,1.028198242,0.060424805,1.953125,-20.87402344,-0.854492188
801944,-0.126953125,1.000976563,0.067504883,-2.746582031,-20.87402344,-0.9765625
801970,-0.084716797,0.976074219,0.08215332,-2.502441406,-14.40429688,-1.46484375
801996,-0.063232422,0.979003906,0.071533203,-0.549316406,-9.399414063,-2.746582031
802023,-0.072998047,0.990112305,0.087646484,-2.502441406,-9.399414063,-4.8828125
802049,-0.077636719,1.004150391,0.10559082,-2.258300781,-9.582519531,-6.225585938
802075,-0.056762695,0.998291016,0.112060547,1.647949219,-5.310058594,-7.32421875
802101,-0.069580078,1.025146484,0.114624023,2.563476563,-4.39453125,-7.995605469
802127,-0.075439453,1.024902344,0.105834961,0.854492188,-5.920410156,-8.117675781
802154,-0.073852539,1.016357422,0.103393555,1.892089844,-5.798339844,-7.629394531
802180,-0.085571289,1.032470703,0.106689453,3.845214844,-4.39453125,-6.8359375
802206,-0.078735352,1.038330078,0.085327148,3.540039063,-4.39453125,-5.493164063
802232,-0.066162109,1.033935547,0.095947266,0.48828125,-5.859375,-4.150390625
802258,-0.067382813,1.038330078,0.09387207,0.671386719,-5.004882813,-3.295898438
802284,-0.092773438,1.024658203,0.078857422,-1.220703125,-4.821777344,-1.770019531
802310,-0.086547852,1.001586914,0.083740234,-4.089355469,-5.004882813,-0.854492188
802336,-0.081665039,0.998535156,0.092285156,-5.126953125,-3.540039063,0.183105469
802362,-0.079467773,0.995727539,0.086547852,-6.103515625,-2.380371094,-0.610351563
802388,-0.088867188,0.99621582,0.103393555,-4.577636719,-2.319335938,-2.746582031
802415,-0.092529297,0.999511719,0.112915039,-3.479003906,-1.647949219,-2.990722656
802441,-0.091430664,1.007568359,0.12109375,-4.211425781,-1.831054688,-2.258300781
802467,-0.089355469,1.008544922,0.119140625,-4.699707031,-2.746582031,-2.075195313
802493,-0.087646484,1.010620117,0.117919922,-4.455566406,-3.234863281,-2.075195313
802519,-0.084350586,1.004882813,0.12487793,-4.089355469,-3.051757813,-1.708984375
802546,-0.077392578,0.991333008,0.12512207,-4.638671875,-2.319335938,-0.9765625
802572,-0.081054688,0.993164063,0.129882813,-5.432128906,-2.868652344,-0.793457031
802598,-0.080932617,0.982666016,0.133056641,-4.39453125,-2.563476563,-1.586914063
802624,-0.082885742,0.994140625,0.137451172,-1.46484375,-2.624511719,-3.295898438
802651,-0.084594727,0.993774414,0.150756836,0.183105469,-2.44140625,-4.150390625
802677,-0.086791992,0.994018555,0.141723633,0.427246094,-2.746582031,-4.028320313
802703,-0.092407227,1.008911133,0.143432617,-0.061035156,-5.432128906,-3.662109375
802729,-0.095092773,1.029785156,0.157104492,1.525878906,-5.493164063,-3.112792969
802755,-0.099609375,1.054931641,0.170288086,1.770019531,-5.310058594,-1.892089844
802782,-0.096923828,1.080566406,0.192993164,-2.868652344,-9.155273438,2.502441406
802808,-0.100097656,1.130859375,0.199584961,-9.094238281,-12.87841797,10.62011719
802834,-0.083129883,1.134277344,0.199951172,-13.54980469,-14.89257813,15.25878906
802860,-0.060791016,1.094604492,0.194946289,-17.27294922,-16.11328125,21.05712891
802886,-0.050415039,1.0859375,0.198486328,-16.23535156,-16.29638672,25.08544922
802912,-0.028198242,1.084838867,0.191772461,-15.74707031,-17.33398438,26.30615234
802939,0.002197266,1.083374023,0.199707031,-18.67675781,-19.10400391,27.34375
802965,0.028930664,1.078491211,0.220092773,-26.55029297,-19.95849609,29.05273438
802991,0.042358398,1.073730469,0.219482422,-31.61621094,-19.53125,30.88378906
803017,0.058227539,1.065063477,0.216186523,-38.69628906,-17.76123047,32.28759766
803043,0.053344727,1.110229492,0.230712891,-42.78564453,-15.68603516,32.10449219
803069,0.044067383,1.136962891,0.246826172,-49.43847656,-16.84570313,32.47070313
803096,0.091552734,1.040771484,0.308105469,-63.90380859,-15.07568359,36.98730469
803122,0.131469727,1.027709961,0.356323242,-76.84326172,-7.934570313,40.46630859
803148,0.149414063,0.995117188,0.380859375,-87.40234375,-3.051757813,39.61181641
803174,0.20300293,0.927978516,0.373291016,-98.02246094,2.197265625,35.03417969
803200,0.199951172,0.903442383,0.469482422,-106.262207,1.342773438,35.03417969
803227,0.206665039,0.873413086,0.528808594,-114.6850586,2.014160156,17.08984375
803253,0.221435547,0.75012207,0.534423828,-121.887207,5.493164063,23.68164063
803279,0.230957031,0.784790039,0.583618164,-124.0234375,11.29150391,14.83154297
803305,0.202270508,0.746459961,0.615112305,-131.7749023,11.35253906,9.765625
803331,0.186523438,0.704101563,0.657714844,-145.1416016,2.197265625,20.87402344
803357,0.218139648,0.563232422,0.759399414,-146.6674805,7.507324219,15.13671875
803384,0.208374023,0.537353516,0.826049805,-127.4414063,8.544921875,22.27783203
803410,0.202270508,0.489746094,0.890380859,-114.3188477,8.056640625,25.08544922
803436,0.198974609,0.454467773,0.915771484,-106.3232422,5.798339844,27.58789063
803462,0.229003906,0.40625,0.900634766,-107.8491211,1.403808594,28.62548828
803488,0.209106445,0.349487305,0.924560547,-109.9243164,-4.150390625,31.25
803514,0.216918945,0.298583984,0.927124023,-111.0839844,-9.399414063,32.40966797
803541,0.224365234,0.208374023,0.929199219,-110.0463867,-5.859375,31.12792969
803567,0.228271484,0.150390625,0.91394043,-108.5205078,-3.051757813,31.55517578
803593,0.205810547,0.088745117,0.898681641,-106.6894531,-3.845214844,33.75244141
803620,0.20715332,0.015136719,0.877685547,-102.355957,-2.807617188,33.63037109
803646,0.203369141,-0.044799805,0.865722656,-97.65625,-2.197265625,31.73828125
803672,0.193359375,-0.140625,0.810302734,-86.73095703,1.953125,29.90722656
803698,0.170410156,-0.169921875,0.782104492,-75.31738281,2.9296875,28.44238281
803725,0.182983398,-0.193725586,0.781616211,-72.87597656,3.723144531,27.09960938
803751,0.194091797,-0.241333008,0.778198242,-70.06835938,12.26806641,27.58789063
803777,0.19152832,-0.306396484,0.754516602,-65.00244141,19.10400391,29.05273438
803803,0.165527344,-0.302734375,0.761474609,-65.00244141,18.49365234,28.38134766
803829,0.139404297,-0.331542969,0.816772461,-67.32177734,16.78466797,28.80859375
803855,0.102661133,-0.383544922,0.852416992,-61.64550781,20.5078125,32.2265625
803882,0.082885742,-0.425415039,0.846191406,-54.6875,20.99609375,34.66796875
803908,0.064453125,-0.428833008,0.801757813,-47.18017578,18.73779297,38.69628906
803934,0.024047852,-0.462646484,0.814208984,-46.50878906,19.28710938,38.57421875
803960,-0.000488281,-0.484985352,0.842651367,-43.88427734,19.40917969,39.30664063
803986,-0.004272461,-0.529907227,0.813598633,-39.55078125,16.35742188,36.56005859
804013,-0.028320313,-0.551147461,0.771606445,-32.71484375,15.74707031,33.26416016
804039,-0.044067383,-0.532714844,0.77746582,-30.15136719,19.65332031,30.76171875
804065,-0.073120117,-0.535400391,0.823730469,-32.47070313,19.65332031,29.05273438
804091,-0.094848633,-0.565551758,0.799438477,-32.65380859,18.79882813,28.07617188
804117,-0.10546875,-0.596313477,0.76184082,-26.12304688,16.78466797,27.95410156
804144,-0.123413086,-0.562866211,0.733764648,-19.65332031,4.8828125,25.20751953
804170,-0.139526367,-0.561401367,0.771118164,-23.19335938,2.258300781,25.63476563
804196,-0.154663086,-0.58984375,0.766357422,-25.75683594,-0.061035156,24.4140625
804222,-0.15625,-0.628051758,0.715698242,-24.23095703,-1.647949219,24.29199219
804248,-0.166381836,-0.619750977,0.700317383,-19.77539063,-2.807617188,23.80371094
804275,-0.214477539,-0.563842773,0.706665039,-25.390625,-4.516601563,23.62060547
804301,-0.192626953,-0.598632813,0.709716797,-32.47070313,-3.723144531,23.92578125
804327,-0.200805664,-0.701660156,0.688110352,-27.03857422,0.549316406,25.390625
804353,-0.220825195,-0.665527344,0.657226563,-15.68603516,-8.361816406,25.87890625
804379,-0.219726563,-0.668457031,0.675537109,-15.31982422,-10.92529297,23.19335938
804406,-0.240722656,-0.659912109,0.701293945,-14.40429688,-5.065917969,22.21679688
804432,-0.238769531,-0.710449219,0.66027832,-10.62011719,-6.164550781,20.62988281
804458,-0.254638672,-0.677978516,0.628295898,-7.080078125,-7.385253906,18.31054688
804484,-0.264526367,-0.667480469,0.635498047,-10.13183594,-7.934570313,15.74707031
804510,-0.286865234,-0.677001953,0.686889648,-11.53564453,-7.202148438,14.03808594
804537,-0.296142578,-0.687988281,0.681274414,-11.90185547,-7.32421875,13.42773438
804563,-0.281005859,-0.734130859,0.650024414,-11.47460938,-9.338378906,11.96289063
804589,-0.277709961,-0.713012695,0.675048828,-9.216308594,-7.690429688,9.521484375
804615,-0.284301758,-0.70690918,0.687133789,-9.582519531,-6.469726563,8.056640625
804642,-0.269775391,-0.711914063,0.684570313,-8.666992188,-7.507324219,5.798339844
804668,-0.268920898,-0.694335938,0.659790039,-12.32910156,-6.530761719,3.601074219
804694,-0.268432617,-0.703979492,0.670288086,-13.54980469,-6.408691406,1.831054688
804720,-0.269287109,-0.661865234,0.646606445,-12.26806641,-6.591796875,0.854492188
804746,-0.267456055,-0.669189453,0.624023438,-15.86914063,-6.774902344,1.281738281
804772,-0.263061523,-0.677978516,0.614379883,-14.28222656,-3.723144531,2.9296875
804799,-0.272827148,-0.665893555,0.618652344,-11.71875,-2.868652344,3.051757813
804825,-0.272949219,-0.664428711,0.588012695,-18.24951172,-4.8828125,3.967285156
804851,-0.261230469,-0.73059082,0.586914063,-17.82226563,-1.525878906,6.408691406
804877,-0.279663086,-0.713867188,0.586181641,-13.30566406,-1.770019531,6.469726563
804904,-0.275634766,-0.747558594,0.584106445,-19.47021484,-6.469726563,4.760742188
804930,-0.275390625,-0.782348633,0.60949707,-16.6015625,-3.90625,4.028320313
804956,-0.295654297,-0.764648438,0.598388672,-13.24462891,-5.798339844,2.563476563
804982,-0.291259766,-0.764038086,0.588134766,-9.582519531,-8.972167969,-0.793457031
805008,-0.295410156,-0.724365234,0.597290039,-7.690429688,-6.225585938,-2.136230469
805035,-0.293701172,-0.71105957,0.619506836,-7.202148438,-6.713867188,-2.44140625
805061,-0.288330078,-0.737548828,0.578613281,-8.178710938,-7.995605469,-1.281738281
805087,-0.294555664,-0.732543945,0.557128906,-4.821777344,-7.690429688,-0.671386719
805113,-0.294067383,-0.719726563,0.570068359,-5.554199219,-7.263183594,-0.549316406
805140,-0.283203125,-0.720947266,0.554077148,-7.751464844,-7.873535156,-0.183105469
805166,-0.291503906,-0.73034668,0.541381836,-9.27734375,-7.32421875,1.281738281
805192,-0.291503906,-0.749755859,0.542480469,-9.765625,-7.263183594,2.380371094
805218,-0.296630859,-0.749633789,0.551147461,-7.385253906,-6.469726563,2.685546875
805245,-0.303100586,-0.718505859,0.55078125,-11.41357422,-6.530761719,2.685546875
805271,-0.296630859,-0.75793457,0.557250977,-14.6484375,-6.042480469,3.90625
805297,-0.305419922,-0.742919922,0.529052734,-16.35742188,-6.286621094,4.638671875
805323,-0.307128906,-0.768310547,0.538085938,-21.36230469,-10.19287109,3.967285156
805349,-0.304321289,-0.799804688,0.54284668,-20.44677734,-8.728027344,4.028320313
805375,-0.320800781,-0.805908203,0.521972656,-13.85498047,-8.422851563,2.9296875
805401,-0.315917969,-0.770874023,0.500610352,-13.61083984,-11.16943359,0
805428,-0.308837891,-0.775146484,0.504760742,-16.23535156,-9.643554688,0.671386719
805454,-0.312133789,-0.803344727,0.495849609,-14.89257813,-8.056640625,0.915527344
805480,-0.314331055,-0.762084961,0.467895508,-15.25878906,-10.31494141,-0.427246094
805506,-0.307617188,-0.778076172,0.470214844,-19.59228516,-9.27734375,0.366210938
805532,-0.305053711,-0.817871094,0.471435547,-20.20263672,-7.568359375,1.220703125
805559,-0.309448242,-0.81652832,0.450805664,-11.84082031,-7.385253906,-0.061035156
805585,-0.30871582,-0.816772461,0.446411133,-7.446289063,-7.202148438,-0.427246094
805611,-0.309204102,-0.813232422,0.44909668,-5.126953125,-6.225585938,0.061035156
805637,-0.310180664,-0.825805664,0.46081543,-2.685546875,-4.272460938,0.305175781
805663,-0.317871094,-0.78918457,0.452636719,-0.305175781,-4.516601563,-0.671386719
805690,-0.316650391,-0.793457031,0.444946289,-2.319335938,-6.042480469,-0.9765625
805716,-0.31628418,-0.812988281,0.457519531,-1.708984375,-4.699707031,-0.061035156
805742,-0.322387695,-0.790893555,0.459960938,2.807617188,-6.286621094,-1.159667969
805769,-0.32434082,-0.779296875,0.443603516,1.098632813,-6.652832031,-0.9765625
805795,-0.318603516,-0.791625977,0.439819336,-1.159667969,-5.065917969,1.220703125
805821,-0.321044922,-0.813720703,0.447509766,2.563476563,-5.249023438,1.586914063
805847,-0.32421875,-0.76550293,0.439208984,3.967285156,-6.469726563,0.9765625
805873,-0.315917969,-0.768188477,0.424072266,0.793457031,-6.042480469,2.990722656
805900,-0.316650391,-0.775146484,0.420043945,2.807617188,-2.9296875,5.065917969
805926,-0.32434082,-0.751831055,0.436157227,5.187988281,-2.380371094,6.164550781
805952,-0.34375,-0.786254883,0.44934082,-0.427246094,-0.793457031,9.033203125
805978,-0.363037109,-0.859375,0.460693359,0.305175781,-0.732421875,8.728027344
806004,-0.366455078,-0.844360352,0.469970703,3.540039063,-3.540039063,5.920410156
806031,-0.354003906,-0.844238281,0.457885742,3.601074219,-7.568359375,1.220703125
806057,-0.356811523,-0.846313477,0.46484375,4.577636719,-11.23046875,-4.089355469
806083,-0.35949707,-0.807006836,0.468139648,3.540039063,-10.13183594,-5.310058594
806109,-0.35546875,-0.806640625,0.456665039,-0.854492188,-10.31494141,-5.737304688
806136,-0.346801758,-0.789916992,0.447875977,0.183105469,-8.30078125,-5.004882813
806162,-0.348022461,-0.776733398,0.456176758,0.183105469,-7.263183594,-5.065917969
806188,-0.349121094,-0.779052734,0.45690918,-1.281738281,-6.896972656,-3.784179688
806214,-0.346435547,-0.798828125,0.462890625,-0.915527344,-6.530761719,-2.990722656
806241,-0.317626953,-0.791137695,0.446044922,-0.915527344,-7.751464844,-4.211425781
806267,-0.33203125,-0.789550781,0.446044922,-1.220703125,-7.873535156,-4.028320313
806293,-0.329101563,-0.776489258,0.428100586,-1.647949219,-7.751464844,-3.90625
806319,-0.333129883,-0.752929688,0.428588867,-4.577636719,-7.995605469,-2.807617188
806345,-0.335571289,-0.758544922,0.431030273,-7.202148438,-7.568359375,-1.037597656
806372,-0.336914063,-0.790161133,0.423095703,-6.103515625,-6.530761719,1.647949219
806398,-0.343505859,-0.793334961,0.432006836,-5.249023438,-6.164550781,2.075195313
806424,-0.346191406,-0.799804688,0.428100586,-3.356933594,-6.713867188,1.953125
806450,-0.35144043,-0.820800781,0.433837891,-4.028320313,-6.652832031,1.708984375
806477,-0.355712891,-0.815551758,0.430419922,1.525878906,-7.446289063,0.061035156
806503,-0.364501953,-0.792236328,0.432861328,1.46484375,-8.056640625,-1.159667969
806529,-0.353027344,-0.83215332,0.434936523,2.258300781,-7.751464844,-1.281738281
806555,-0.360717773,-0.807617188,0.4296875,4.272460938,-6.8359375,-2.258300781
806581,-0.354736328,-0.802490234,0.420776367,4.150390625,-6.896972656,-2.807617188
806608,-0.357543945,-0.809448242,0.426391602,3.295898438,-4.272460938,-2.807617188
806634,-0.350708008,-0.797485352,0.423706055,0,-5.187988281,-3.479003906
806660,-0.347412109,-0.812011719,0.428833008,0.793457031,-5.37109375,-3.845214844
806686,-0.350097656,-0.803955078,0.434936523,2.9296875,-4.211425781,-3.967285156
806712,-0.34362793,-0.791625977,0.432006836,2.258300781,-5.187988281,-3.723144531
806738,-0.340087891,-0.778564453,0.431518555,3.112792969,-4.272460938,-2.563476563
806765,-0.344238281,-0.775878906,0.421020508,1.647949219,-4.333496094,-2.624511719
806791,-0.342041016,-0.784179688,0.431030273,0.854492188,-3.723144531,-1.037597656
806817,-0.350830078,-0.786743164,0.431152344,2.014160156,-4.577636719,-0.854492188
806843,-0.348266602,-0.789672852,0.428344727,2.685546875,-4.028320313,-0.305175781
806869,-0.358642578,-0.786254883,0.434326172,0.9765625,-3.479003906,0.427246094
806896,-0.353149414,-0.830932617,0.450073242,3.173828125,-3.662109375,0.244140625
806922,-0.363647461,-0.802978516,0.446533203,5.859375,-3.967285156,-0.610351563
806948,-0.363891602,-0.801757813,0.450927734,5.493164063,-5.493164063,-1.770019531
806974,-0.363525391,-0.829101563,0.465209961,3.662109375,-5.065917969,-2.990722656
807000,-0.372436523,-0.854980469,0.465087891,6.103515625,-6.8359375,-4.8828125
807026,-0.37512207,-0.851806641,0.462280273,12.63427734,-9.765625,-9.765625
807053,-0.367675781,-0.876464844,0.445800781,12.93945313,-11.29150391,-14.70947266
807079,-0.349609375,-0.947875977,0.442626953,21.66748047,-10.98632813,-18.18847656
807105,-0.341552734,-0.760986328,0.379272461,30.94482422,-12.02392578,-27.22167969
807131,-0.291503906,-0.892333984,0.397338867,19.53125,-11.77978516,-31.55517578
807157,-0.281616211,-0.992797852,0.443359375,34.24072266,-3.601074219,-30.02929688
807183,-0.318481445,-0.703369141,0.398071289,54.99267578,-4.638671875,-40.10009766
807210,-0.264404297,-0.786865234,0.37902832,32.53173828,-5.004882813,-44.43359375
807236,-0.258789063,-0.854003906,0.439331055,35.94970703,2.990722656,-40.95458984
807262,-0.280639648,-0.787719727,0.511962891,45.47119141,9.216308594,-44.00634766
807288,-0.220214844,-0.903442383,0.522460938,67.99316406,4.028320313,-56.03027344
807315,-0.26940918,-0.810913086,0.573486328,95.45898438,15.07568359,-54.50439453
807341,-0.28137207,-0.53503418,0.537963867,81.54296875,10.00976563,-54.19921875
807367,-0.201538086,-0.74597168,0.591918945,60.85205078,9.399414063,-55.11474609
807393,-0.206665039,-0.920532227,0.697509766,87.52441406,32.65380859,-46.50878906
807419,-0.300537109,-0.797851563,0.721069336,168.8842773,43.9453125,-50.35400391
807445,-0.288085938,-0.364135742,0.651123047,203.2470703,10.86425781,-56.94580078
807472,-0.257446289,-0.15637207,0.710327148,170.0439453,9.643554688,-51.81884766
807498,-0.21081543,-0.24987793,0.83215332,100.2197266,34.24072266,-41.87011719
807524,-0.255493164,-0.449462891,0.873168945,95.21484375,50.41503906,-34.24072266
807550,-0.313476563,-0.434204102,0.868041992,122.3754883,11.53564453,-31.73828125
807576,-0.240722656,-0.239501953,0.83203125,152.7709961,-47.54638672,-28.74755859
807603,-0.219970703,-0.153320313,0.883789063,156.0668945,-42.41943359,-29.35791016
807629,-0.217895508,-0.099853516,0.879516602,159.6679688,-45.83740234,-26.00097656
807655,-0.191894531,-0.000732422,0.852416992,163.6352539,-50.17089844,-22.94921875
807681,-0.159179688,0.098876953,0.86706543,166.3208008,-57.92236328,-19.71435547
807707,-0.126708984,0.177734375,0.841186523,165.0390625,-65.18554688,-16.05224609
807733,-0.079101563,0.303100586,0.80859375,162.109375,-67.56591797,-15.07568359
807760,-0.037475586,0.37097168,0.824584961,145.7519531,-60.546875,-14.46533203
807786,-0.022949219,0.379516602,0.802246094,136.0473633,-53.89404297,-13.42773438
807812,0.010498047,0.421875,0.740356445,136.5966797,-54.80957031,-13.24462891
807838,0.051635742,0.514038086,0.729492188,136.5966797,-50.23193359,-16.78466797
807864,0.039672852,0.577148438,0.718139648,131.652832,-49.92675781,-14.16015625
807890,0.069458008,0.622802734,0.682250977,127.5634766,-48.46191406,-12.87841797
807917,-0.000488281,0.739135742,0.697387695,119.0185547,-51.87988281,-12.75634766
807942,0.04284668,0.697998047,0.579711914,108.2763672,-68.96972656,-4.028320313
807969,0.125488281,0.737304688,0.562133789,109.4970703,-77.69775391,-3.051757813
807995,0.126953125,0.807128906,0.562744141,99.54833984,-76.90429688,-9.521484375
808021,0.165893555,0.856567383,0.467895508,79.16259766,-78.49121094,-8.7890625
808047,0.258666992,0.844238281,0.415893555,71.41113281,-77.20947266,-11.16943359
808074,0.286987305,0.900878906,0.458129883,70.00732422,-61.27929688,-19.16503906
808100,0.250854492,0.990722656,0.428710938,64.75830078,-43.64013672,-23.31542969
808126,0.233032227,1.055053711,0.395751953,57.00683594,-40.28320313,-23.74267578
808152,0.195922852,1.065795898,0.411743164,44.37255859,-46.14257813,-21.05712891
808178,0.251586914,1.093017578,0.440063477,48.15673828,-48.09570313,-15.74707031
808205,0.288330078,1.088256836,0.411010742,57.55615234,-43.27392578,-13.54980469
808231,0.374511719,1.150390625,0.367675781,67.3828125,-29.47998047,-13.54980469
808257,0.244995117,1.210449219,0.453125,56.33544922,-14.16015625,-16.47949219
808283,0.188354492,1.164550781,0.388916016,46.99707031,-12.20703125,-10.49804688
808309,0.185913086,1.172851563,0.223632813,32.04345703,-29.72412109,3.601074219
808335,0.251220703,1.159545898,0.30456543,10.00976563,-48.828125,11.41357422
808362,0.287841797,1.093994141,0.288452148,9.582519531,-52.91748047,16.23535156
808388,0.273925781,1.018554688,0.201782227,15.13671875,-48.76708984,19.65332031
808414,0.251953125,0.994995117,0.108398438,16.35742188,-45.59326172,20.69091797
808440,0.258544922,0.990234375,0.077148438,6.34765625,-45.77636719,21.30126953
808466,0.275024414,0.939941406,0.08581543,-9.582519531,-37.65869141,19.40917969
808493,0.313354492,0.88659668,0.077026367,-16.54052734,-26.79443359,16.11328125
808519,0.301147461,0.879760742,0.083129883,-17.21191406,-20.75195313,11.53564453
808545,0.352661133,0.82043457,0.091796875,-18.37158203,-18.85986328,8.666992188
808571,0.350219727,0.850219727,0.136962891,-18.24951172,-14.89257813,1.953125
808597,0.357177734,0.831298828,0.177124023,-10.13183594,-9.765625,-4.699707031
808624,0.350097656,0.836791992,0.186889648,-2.075195313,-6.896972656,-8.178710938
808650,0.33203125,0.853881836,0.163208008,1.831054688,-4.943847656,-13.18359375
808677,0.319824219,0.877563477,0.176025391,4.8828125,-5.126953125,-20.44677734
808703,0.313110352,0.881835938,0.210693359,8.666992188,-4.39453125,-22.76611328
808729,0.298217773,0.948852539,0.221557617,13.30566406,-6.225585938,-23.86474609
808755,0.27746582,1.000610352,0.267822266,10.55908203,-9.399414063,-23.01025391
808781,0.277709961,1.005126953,0.264404297,10.55908203,-12.08496094,-21.24023438
808807,0.26574707,1.010375977,0.225097656,11.53564453,-15.68603516,-20.5078125
808834,0.232299805,1.02355957,0.188964844,14.40429688,-19.10400391,-18.85986328
808860,0.222412109,1.016845703,0.177368164,14.95361328,-20.14160156,-17.15087891
808886,0.226074219,1.026245117,0.147705078,12.87841797,-19.28710938,-14.09912109
808912,0.213867188,1.004760742,0.115478516,7.141113281,-17.27294922,-12.57324219
808938,0.213623047,0.984863281,0.104492188,5.981445313,-14.77050781,-12.08496094
808964,0.21862793,0.981079102,0.10144043,7.934570313,-10.07080078,-11.16943359
808991,0.224731445,0.990600586,0.098266602,7.751464844,-5.615234375,-11.35253906
809017,0.226806641,1.003295898,0.095947266,6.103515625,-4.272460938,-10.86425781
809043,0.231933594,1.01171875,0.112182617,1.037597656,-2.563476563,-10.13183594
809069,0.258911133,1.022583008,0.133178711,-0.122070313,-0.48828125,-8.728027344
809095,0.279663086,1.051879883,0.151733398,3.173828125,0.671386719,-7.080078125
809122,0.297851563,1.115966797,0.158691406,9.643554688,0.915527344,-2.502441406
809148,0.286743164,1.19934082,0.126831055,6.896972656,-2.685546875,4.455566406
809174,0.282958984,1.202392578,0.125244141,0,-5.615234375,13.42773438
809200,0.280395508,1.170043945,0.107910156,-6.958007813,-7.019042969,19.40917969
809226,0.285400391,1.143676758,0.101928711,-13.36669922,-3.90625,25.20751953
809252,0.286132813,1.112670898,0.101318359,-18.06640625,-0.915527344,29.47998047
809278,0.298950195,1.095703125,0.123779297,-29.35791016,0.854492188,31.37207031
809305,0.310546875,1.063476563,0.154541016,-45.16601563,5.432128906,33.08105469
809331,0.308837891,1.082885742,0.166870117,-70.37353516,7.263183594,35.88867188
809357,0.306274414,1.06262207,0.213745117,-91.18652344,5.859375,38.26904297
809383,0.337646484,0.950683594,0.264038086,-113.4643555,7.8125,40.95458984
809409,0.353637695,0.908569336,0.302001953,-116.7602539,12.02392578,41.93115234
809436,0.363891602,0.851928711,0.375976563,-113.8916016,13.79394531,41.44287109
809462,0.416870117,0.768188477,0.450927734,-111.6943359,17.08984375,42.11425781
809488,0.423706055,0.747558594,0.506469727,-107.3608398,25.08544922,42.05322266
809514,0.403198242,0.720947266,0.526489258,-103.5766602,31.12792969,39.36767578
809541,0.383300781,0.690063477,0.553588867,-106.0791016,34.72900391,38.75732422
809567,0.374267578,0.677978516,0.614990234,-128.1738281,28.86962891,42.48046875
809593,0.380737305,0.58203125,0.641479492,-141.6015625,29.47998047,43.64013672
809619,0.37512207,0.467651367,0.681152344,-138.4887695,31.73828125,44.06738281
809645,0.377075195,0.431396484,0.735839844,-129.7607422,32.10449219,45.10498047
809672,0.369750977,0.413696289,0.774902344,-132.7514648,32.2265625,48.64501953
809698,0.357055664,0.275512695,0.810180664,-133.605957,32.34863281,50.17089844
809724,0.353149414,0.16784668,0.83984375,-116.027832,30.33447266,50.17089844
809750,0.353271484,0.138061523,0.86730957,-104.0649414,30.21240234,49.56054688
809776,0.336914063,0.106567383,0.896240234,-94.42138672,30.09033203,49.37744141
809802,0.322875977,0.045776367,0.920410156,-95.15380859,28.99169922,50.35400391
809828,0.304077148,-0.037109375,0.936889648,-93.56689453,28.86962891,49.62158203
809855,0.270751953,-0.090087891,0.930175781,-82.09228516,25.87890625,47.72949219
809881,0.252563477,-0.092041016,0.919555664,-83.0078125,19.22607422,47.97363281
809907,0.251708984,-0.145874023,0.92199707,-89.29443359,18.18847656,47.60742188
809933,0.228759766,-0.24206543,0.935791016,-85.20507813,19.16503906,46.32568359
809959,0.203125,-0.273925781,0.908569336,-75.13427734,17.82226563,45.65429688
809986,0.187255859,-0.274414063,0.886474609,-75.86669922,16.23535156,45.8984375
810012,0.153076172,-0.335693359,0.892578125,-79.40673828,13.06152344,45.83740234
810038,0.132446289,-0.397949219,0.861938477,-72.93701172,11.96289063,45.34912109
810064,0.116699219,-0.400268555,0.815795898,-69.94628906,10.80322266,46.20361328
810090,0.086303711,-0.426757813,0.782348633,-75.62255859,7.629394531,47.48535156
810117,0.075195313,-0.477172852,0.779052734,-74.40185547,6.652832031,49.74365234
810143,0.045288086,-0.478881836,0.759277344,-70.19042969,2.990722656,50.78125
810169,0.045898438,-0.526977539,0.72644043,-69.21386719,2.258300781,52.97851563
810195,0.033325195,-0.557373047,0.644287109,-64.453125,1.770019531,55.41992188
810221,0.007080078,-0.586791992,0.619384766,-66.46728516,9.643554688,57.43408203
810248,-0.042114258,-0.634887695,0.645263672,-62.86621094,12.08496094,58.83789063
810274,-0.07800293,-0.669921875,0.631835938,-52.61230469,12.32910156,59.26513672
810300,-0.096801758,-0.689208984,0.607543945,-43.27392578,10.31494141,58.83789063
810326,-0.142944336,-0.731689453,0.598022461,-39.12353516,10.62011719,58.59375
810352,-0.203857422,-0.751220703,0.597290039,-35.46142578,8.239746094,54.93164063
810378,-0.234619141,-0.799194336,0.59387207,-29.78515625,2.380371094,48.88916016
810405,-0.237304688,-0.823730469,0.564331055,-23.19335938,-3.601074219,43.76220703
810431,-0.258544922,-0.813476563,0.538574219,-12.87841797,-9.704589844,33.75244141
810457,-0.262451172,-0.767211914,0.561767578,-5.981445313,-12.32910156,25.87890625
810483,-0.259155273,-0.753051758,0.553466797,-5.004882813,-13.91601563,22.52197266
810509,-0.224609375,-0.795043945,0.533569336,-4.333496094,-12.39013672,19.77539063
810536,-0.237548828,-0.772216797,0.579101563,-3.723144531,-6.164550781,17.08984375
810562,-0.227294922,-0.775146484,0.608642578,-3.723144531,-3.662109375,16.23535156
810588,-0.216308594,-0.779663086,0.632080078,0.9765625,-2.9296875,13.24462891
810614,-0.201171875,-0.730957031,0.584228516,4.638671875,-4.272460938,9.155273438
810640,-0.231933594,-0.701904297,0.587158203,0.366210938,-3.051757813,8.117675781
810667,-0.259521484,-0.683349609,0.60546875,-3.234863281,-1.098632813,10.68115234
810693,-0.298461914,-0.691894531,0.63671875,-6.103515625,-0.427246094,13.97705078
810719,-0.315551758,-0.726806641,0.624633789,-5.554199219,-2.075195313,15.01464844
810745,-0.318603516,-0.75793457,0.597900391,-1.708984375,-5.004882813,14.6484375
810771,-0.31652832,-0.748413086,0.609375,-2.685546875,-4.577636719,11.90185547
810797,-0.325561523,-0.768066406,0.641601563,-5.187988281,-4.943847656,9.643554688
810824,-0.328369141,-0.808349609,0.637084961,-6.958007813,-6.652832031,5.615234375
810850,-0.377563477,-0.874511719,0.661132813,-10.37597656,-1.953125,0.427246094
810876,-0.301391602,-0.811889648,0.591918945,-3.051757813,-14.16015625,-8.7890625
810902,-0.290649414,-0.770263672,0.572998047,-5.615234375,-14.58740234,-10.49804688
810929,-0.270263672,-0.717895508,0.557373047,-3.601074219,-12.39013672,-11.53564453
810955,-0.274536133,-0.682250977,0.556030273,-1.46484375,-8.117675781,-10.19287109
810981,-0.264404297,-0.659545898,0.524658203,-0.9765625,-7.141113281,-7.32421875
811007,-0.272827148,-0.665893555,0.529541016,-0.549316406,-4.333496094,-2.258300781
811033,-0.276855469,-0.703857422,0.536865234,-0.305175781,-2.624511719,0.915527344
811059,-0.291503906,-0.755004883,0.567382813,-0.366210938,-1.831054688,1.403808594
811086,-0.289550781,-0.793334961,0.59362793,-0.061035156,-3.479003906,-0.549316406
811112,-0.274414063,-0.807250977,0.581420898,0.48828125,-7.32421875,-5.37109375
811138,-0.266601563,-0.792114258,0.567504883,2.746582031,-9.033203125,-8.544921875
811164,-0.263183594,-0.723388672,0.549926758,4.638671875,-9.582519531,-10.80322266
811191,-0.264282227,-0.668701172,0.549804688,2.868652344,-7.446289063,-8.972167969
811217,-0.262573242,-0.659790039,0.548950195,1.892089844,-4.821777344,-5.615234375
811243,-0.273803711,-0.672851563,0.569946289,2.502441406,-0.366210938,-0.427246094
811269,-0.283691406,-0.700805664,0.580444336,3.845214844,-0.427246094,2.624511719
811295,-0.287109375,-0.732788086,0.592651367,2.014160156,-0.9765625,3.295898438
811322,-0.279541016,-0.80871582,0.599365234,0.305175781,-3.173828125,1.647949219
811348,-0.270751953,-0.822143555,0.595092773,3.723144531,-7.507324219,-3.90625
811374,-0.266235352,-0.788818359,0.576538086,4.821777344,-10.07080078,-7.32421875
811400,-0.259155273,-0.746337891,0.567993164,2.990722656,-9.826660156,-9.216308594
811426,-0.259277344,-0.68371582,0.572143555,3.90625,-6.164550781,-7.568359375
811453,-0.257080078,-0.665405273,0.568237305,3.356933594,-4.455566406,-5.065917969
811479,-0.267333984,-0.666992188,0.565795898,2.075195313,-1.586914063,-0.366210938
811505,-0.287475586,-0.710693359,0.599121094,2.136230469,0.671386719,2.807617188
811531,-0.295166016,-0.735595703,0.603515625,2.380371094,-0.366210938,2.380371094
811558,-0.2890625,-0.773193359,0.598266602,1.342773438,-4.39453125,0.427246094
811584,-0.275756836,-0.790161133,0.599365234,1.647949219,-8.056640625,-3.234863281
811610,-0.268554688,-0.771850586,0.591674805,2.502441406,-10.55908203,-5.493164063
811636,-0.258789063,-0.735351563,0.568481445,3.112792969,-11.04736328,-6.103515625
811662,-0.259887695,-0.685180664,0.576782227,2.624511719,-7.873535156,-4.699707031
811689,-0.263183594,-0.677368164,0.578735352,0.549316406,-4.272460938,-0.366210938
811715,-0.265136719,-0.690917969,0.567138672,1.708984375,-3.051757813,1.403808594
811741,-0.285400391,-0.699462891,0.585083008,2.075195313,-2.685546875,3.051757813
811767,-0.292480469,-0.727905273,0.587280273,0.610351563,-4.211425781,3.295898438
811793,-0.292724609,-0.764282227,0.592651367,0.610351563,-5.493164063,2.075195313
811819,-0.291259766,-0.767578125,0.599121094,2.380371094,-8.178710938,-0.793457031
811845,-0.282104492,-0.759155273,0.592895508,1.953125,-10.00976563,-2.807617188
811871,-0.271484375,-0.756347656,0.576416016,1.403808594,-9.155273438,-3.540039063
811898,-0.272094727,-0.724487305,0.571899414,1.831054688,-7.202148438,-4.028320313
811924,-0.278808594,-0.710449219,0.587280273,0.854492188,-4.39453125,-2.685546875
811950,-0.28527832,-0.712402344,0.581176758,0.244140625,-2.624511719,-1.892089844
811976,-0.289550781,-0.728149414,0.590454102,0.793457031,-2.136230469,-1.403808594
812002,-0.29296875,-0.727416992,0.592529297,2.319335938,-2.9296875,-2.075195313
812029,-0.292236328,-0.723510742,0.588500977,1.647949219,-4.089355469,-2.990722656
812055,-0.293579102,-0.735473633,0.593383789,0.48828125,-4.333496094,-3.112792969
812081,-0.282470703,-0.732543945,0.584960938,2.380371094,-5.310058594,-3.051757813
812107,-0.277099609,-0.729248047,0.579467773,1.770019531,-5.737304688,-3.723144531
812133,-0.277832031,-0.724853516,0.575927734,0.610351563,-4.150390625,-3.479003906
812160,-0.276855469,-0.717895508,0.575073242,1.892089844,-4.150390625,-3.356933594
812186,-0.278930664,-0.702026367,0.566650391,2.44140625,-4.028320313,-2.807617188
812212,-0.282958984,-0.689208984,0.557250977,2.075195313,-1.953125,-1.098632813
812238,-0.28918457,-0.697509766,0.57043457,0.793457031,-1.220703125,0.610351563
812265,-0.294799805,-0.725219727,0.58581543,1.770019531,-1.037597656,1.647949219
812291,-0.304321289,-0.723266602,0.584960938,4.577636719,-2.502441406,1.159667969
812317,-0.302490234,-0.73059082,0.591552734,3.234863281,-3.845214844,0.9765625
812343,-0.298339844,-0.746459961,0.598999023,2.075195313,-2.868652344,0.732421875
812369,-0.295166016,-0.749267578,0.606689453,4.577636719,-7.385253906,-2.380371094
812395,-0.294189453,-0.739379883,0.60144043,2.563476563,-6.042480469,-2.685546875
812422,-0.294555664,-0.737670898,0.593139648,1.892089844,-6.042480469,-3.112792969
812448,-0.305297852,-0.722900391,0.595825195,2.014160156,-4.516601563,-3.784179688
812474,-0.302734375,-0.697753906,0.577880859,2.197265625,-5.493164063,-3.479003906
812500,-0.296875,-0.696899414,0.576416016,1.403808594,-4.39453125,-1.831054688
812526,-0.292724609,-0.701904297,0.55480957,2.197265625,-3.784179688,-1.037597656
812553,-0.297851563,-0.698608398,0.561767578,2.685546875,-2.624511719,-0.48828125
812579,-0.302368164,-0.716552734,0.582519531,2.075195313,-0.48828125,0.366210938
812605,-0.326171875,-0.730712891,0.608886719,2.563476563,-1.892089844,-0.244140625
812631,-0.304931641,-0.723144531,0.578979492,3.295898438,-5.310058594,-1.892089844
812657,-0.311523438,-0.731689453,0.587158203,2.624511719,-4.089355469,-1.342773438
812684,-0.304443359,-0.725463867,0.591552734,3.41796875,-5.004882813,-2.319335938
812710,-0.304931641,-0.709960938,0.58972168,3.784179688,-5.981445313,-2.624511719
812736,-0.341918945,-0.712890625,0.596679688,2.807617188,-4.8828125,-1.831054688
812762,-0.314575195,-0.716796875,0.597045898,2.502441406,-4.760742188,-2.197265625
812788,-0.316040039,-0.715942383,0.596313477,2.868652344,-4.333496094,-2.380371094
812815,-0.315063477,-0.706176758,0.594848633,3.41796875,-5.249023438,-3.051757813
812841,-0.313598633,-0.720825195,0.591308594,2.9296875,-5.676269531,-3.112792969
812867,-0.3125,-0.70690918,0.596557617,2.563476563,-5.004882813,-2.990722656
812893,-0.306762695,-0.706420898,0.594116211,3.784179688,-6.042480469,-2.9296875
812919,-0.3046875,-0.707519531,0.578735352,4.150390625,-5.920410156,-2.746582031
812945,-0.304199219,-0.707275391,0.588623047,3.295898438,-4.516601563,-2.319335938
812972,-0.307006836,-0.706420898,0.590332031,3.41796875,-4.638671875,-2.258300781
812998,-0.312011719,-0.712402344,0.58581543,2.807617188,-4.516601563,-2.075195313
813024,-0.315917969,-0.704589844,0.586425781,2.258300781,-3.845214844,-2.197265625
813050,-0.316772461,-0.71105957,0.612060547,1.647949219,-4.577636719,-2.44140625
813076,-0.317749023,-0.703369141,0.602905273,3.41796875,-4.943847656,-2.197265625
813103,-0.317138672,-0.698120117,0.596435547,2.990722656,-5.432128906,-2.075195313
813129,-0.315795898,-0.703125,0.602416992,0.48828125,-4.760742188,-1.953125
813155,-0.318237305,-0.709472656,0.611572266,0.854492188,-4.39453125,-2.014160156
813181,-0.314575195,-0.6953125,0.594970703,3.234863281,-6.225585938,-2.685546875
813208,-0.311645508,-0.708740234,0.586547852,1.159667969,-6.652832031,-2.624511719
813234,-0.310913086,-0.712890625,0.590820313,0.854492188,-5.310058594,-2.258300781
813260,-0.313598633,-0.696533203,0.598388672,3.173828125,-5.554199219,-2.9296875
813286,-0.312255859,-0.6953125,0.587524414,1.525878906,-5.249023438,-2.258300781
813312,-0.314453125,-0.70715332,0.588378906,0.854492188,-4.39453125,-1.46484375
813338,-0.31237793,-0.7109375,0.596923828,2.9296875,-5.432128906,-2.502441406
813365,-0.315307617,-0.683959961,0.598999023,3.295898438,-4.699707031,-2.563476563
813391,-0.317871094,-0.696289063,0.604003906,1.525878906,-4.760742188,-1.708984375
813417,-0.320556641,-0.719970703,0.601928711,0.915527344,-5.493164063,-2.014160156
813443,-0.327880859,-0.695678711,0.608520508,2.563476563,-5.493164063,-2.624511719
813469,-0.324584961,-0.692749023,0.606323242,0.671386719,-5.676269531,-2.44140625
813495,-0.318603516,-0.715820313,0.596679688,-0.061035156,-5.310058594,-2.502441406
813522,-0.321777344,-0.700317383,0.594726563,3.295898438,-6.530761719,-3.723144531
813548,-0.321166992,-0.689697266,0.596679688,1.159667969,-6.286621094,-3.601074219
813574,-0.321777344,-0.706176758,0.598510742,0.122070313,-5.187988281,-2.990722656
813600,-0.323364258,-0.706420898,0.595947266,2.502441406,-6.34765625,-3.540039063
813626,-0.313964844,-0.67980957,0.585449219,2.868652344,-7.019042969,-3.601074219
813652,-0.313476563,-0.703491211,0.590942383,0.732421875,-5.432128906,-3.112792969
813678,-0.317382813,-0.709228516,0.6015625,2.9296875,-5.249023438,-3.723144531
813705,-0.317504883,-0.681152344,0.592773438,3.845214844,-6.225585938,-3.90625
813731,-0.315673828,-0.704467773,0.605102539,1.220703125,-4.943847656,-3.295898438
813757,-0.327514648,-0.727783203,0.625,2.075195313,-5.310058594,-3.723144531
813783,-0.321533203,-0.753540039,0.626831055,5.798339844,-7.995605469,-5.981445313
813810,-0.322021484,-0.749023438,0.627929688,9.216308594,-7.629394531,-7.568359375
813836,-0.3203125,-0.751342773,0.619384766,11.16943359,-10.37597656,-11.77978516
813862,-0.316650391,-0.806152344,0.608886719,12.14599609,-11.10839844,-17.578125
813888,-0.314697266,-0.820068359,0.626220703,17.70019531,-11.77978516,-22.15576172
813914,-0.302124023,-0.824951172,0.603759766,30.09033203,-17.27294922,-30.02929688
813941,-0.279296875,-0.881713867,0.611206055,52.36816406,-15.80810547,-37.17041016
813967,-0.305419922,-0.758178711,0.635253906,66.52832031,-11.84082031,-42.05322266
813993,-0.275878906,-0.636108398,0.634521484,54.62646484,-19.34814453,-50.65917969
814019,-0.237182617,-0.797485352,0.701171875,57.00683594,-12.57324219,-51.45263672
814045,-0.266357422,-0.883300781,0.767822266,87.15820313,-1.037597656,-48.40087891
814072,-0.335449219,-0.746704102,0.781738281,151.6723633,-13.97705078,-58.83789063
814098,-0.276123047,-0.447021484,0.737304688,175.78125,-37.78076172,-64.94140625
814124,-0.240112305,-0.310791016,0.748901367,155.0292969,-38.81835938,-58.59375
814150,-0.169799805,-0.319580078,0.765991211,107.8491211,-31.73828125,-55.72509766
814176,-0.181884766,-0.415893555,0.732666016,100.9521484,-73.97460938,-64.453125
814202,-0.104614258,-0.364624023,0.802246094,106.9946289,-75.25634766,-64.02587891
814229,-0.040283203,-0.364501953,0.848510742,111.4501953,-69.09179688,-69.51904297
814255,-0.039916992,-0.311889648,0.856323242,130.6152344,-65.00244141,-74.34082031
814281,-0.035400391,-0.186889648,0.841674805,138.0004883,-69.76318359,-75.50048828
814307,0.021362305,-0.035522461,0.82434082,127.8686523,-75.62255859,-77.20947266
814333,0.080810547,-0.01550293,0.826171875,125.4882813,-76.84326172,-81.35986328
814359,0.095581055,0.061889648,0.75,138.3666992,-71.10595703,-78.79638672
814386,0.126708984,0.199829102,0.748535156,141.3574219,-68.359375,-76.41601563
814412,0.169189453,0.306396484,0.704467773,146.2402344,-69.15283203,-74.27978516
814438,0.185058594,0.448852539,0.651977539,145.7519531,-69.76318359,-72.08251953
814464,0.18359375,0.489379883,0.605224609,141.3574219,-68.29833984,-69.64111328
814490,0.207519531,0.536865234,0.545776367,142.3950195,-58.16650391,-66.77246094
814517,0.215698242,0.634521484,0.496826172,147.8271484,-46.93603516,-61.27929688
814543,0.20324707,0.698364258,0.468139648,151.4892578,-38.02490234,-57.43408203
814569,0.224121094,0.815917969,0.399291992,148.6816406,-29.90722656,-49.92675781
814595,0.250488281,0.87097168,0.354125977,138.3056641,-21.36230469,-49.92675781
814621,0.232055664,0.897460938,0.345458984,136.2915039,-11.96289063,-47.66845703
814648,0.205444336,0.95300293,0.327758789,133.972168,-4.638671875,-39.0625
814674,0.225097656,1.022705078,0.259277344,125.793457,-13.671875,-33.08105469
814700,0.200561523,1.067138672,0.238647461,118.2861328,-20.99609375,-32.65380859
814726,0.216308594,1.223876953,0.178222656,106.3842773,-34.97314453,-20.75195313
814752,0.212280273,1.457885742,0.169799805,82.51953125,-66.52832031,-38.0859375
814778,0.268676758,1.10144043,0.149536133,53.10058594,-62.86621094,2.990722656
814805,0.247802734,1.157226563,0.192260742,41.19873047,-42.78564453,-15.93017578
814831,0.216430664,1.180541992,0.169555664,42.23632813,-26.91650391,-14.22119141
814857,0.227172852,1.193359375,0.138427734,43.51806641,-26.18408203,-8.544921875
814883,0.215942383,1.18371582,0.133056641,36.49902344,-32.34863281,-0.793457031
814910,0.23449707,1.098266602,0.079711914,32.04345703,-36.74316406,5.37109375
814936,0.267822266,1.073242188,0.048828125,29.72412109,-31.37207031,5.493164063
814962,0.287475586,1.07409668,0.034057617,26.85546875,-36.1328125,-0.305175781
814988,0.29699707,1.042602539,0.044677734,18.85986328,-30.51757813,-8.422851563
815014,0.262084961,1.052490234,0.05078125,10.62011719,-23.62060547,-15.99121094
815040,0.208129883,1.033569336,0.063720703,-3.662109375,-22.70507813,-16.35742188
815067,0.21887207,0.977539063,0.035766602,-8.544921875,-23.37646484,-13.18359375
815092,0.238525391,0.947875977,0.016967773,-3.295898438,-21.66748047,-11.71875
815119,0.243530273,1.006225586,0.024291992,7.751464844,-17.08984375,-11.35253906
815145,0.230102539,1.053344727,0.022338867,6.958007813,-15.68603516,-10.55908203
815171,0.228759766,1.055053711,0.024047852,2.868652344,-16.6015625,-9.826660156
815197,0.231201172,1.037597656,0.008666992,1.770019531,-18.31054688,-8.666992188
815223,0.213745117,1.061279297,0.013427734,6.713867188,-17.33398438,-7.446289063
815249,0.228759766,1.055053711,-0.004150391,8.422851563,-16.84570313,-4.516601563
815276,0.217407227,1.051391602,-0.026245117,6.469726563,-15.13671875,-3.234863281
815302,0.208496094,1.020385742,-0.043457031,3.90625,-13.73291016,-1.770019531
815328,0.206542969,1.002929688,-0.042602539,5.432128906,-10.13183594,-1.46484375
815354,0.204833984,0.994140625,-0.042602539,6.530761719,-6.896972656,-2.136230469
815380,0.197998047,0.974853516,-0.043701172,6.408691406,-3.601074219,-3.784179688
815407,0.192016602,0.958129883,-0.043457031,7.873535156,-1.708984375,-5.737304688
815433,0.191772461,0.955200195,-0.040039063,10.19287109,-0.183105469,-7.263183594
815459,0.19140625,0.962158203,-0.028320313,12.20703125,3.173828125,-10.25390625
815485,0.167724609,1.005004883,-0.020751953,9.216308594,3.41796875,-12.26806641
815511,0.158935547,1.028198242,-0.006347656,5.798339844,1.770019531,-11.96289063
815537,0.163574219,1.067138672,0.029296875,2.685546875,-2.685546875,-9.216308594
815564,0.165527344,1.076782227,0.032958984,2.502441406,-2.197265625,-8.422851563
815590,0.156616211,1.072387695,0.012817383,2.868652344,-3.295898438,-6.591796875
815616,0.138671875,1.060791016,-0.012084961,2.319335938,-5.37109375,-3.845214844
815642,0.141723633,1.040771484,-0.020874023,0.793457031,-5.859375,-0.9765625
815668,0.150390625,1.014404297,-0.026855469,-0.305175781,-4.455566406,-0.122070313
815694,0.154541016,0.993164063,-0.043701172,-0.427246094,-2.624511719,-0.732421875
815721,0.160400391,0.976074219,-0.047119141,0.793457031,-2.563476563,-1.586914063
815747,0.13671875,0.970947266,-0.042358398,1.037597656,-1.586914063,-3.295898438
815773,0.161865234,0.981079102,-0.01574707,1.098632813,0.183105469,-4.699707031
815799,0.166992188,0.989135742,-0.01159668,0.9765625,2.197265625,-6.713867188
815825,0.162841797,1.001953125,-0.002563477,1.831054688,1.708984375,-7.751464844
815852,0.161132813,1.022705078,0.010253906,2.563476563,-0.366210938,-7.690429688
815878,0.161621094,1.038452148,0.01171875,2.380371094,-2.197265625,-7.141113281
815904,0.145996094,1.04699707,0.006958008,1.525878906,-3.295898438,-6.164550781
815930,0.127929688,1.046386719,-0.000366211,1.281738281,-4.272460938,-5.187988281
815956,0.120239258,1.041992188,-0.003540039,-0.061035156,-5.187988281,-3.723144531
815982,0.122680664,1.03515625,0.001098633,-1.037597656,-5.493164063,-2.075195313
816009,0.129394531,1.036987305,0.003662109,-0.9765625,-5.432128906,-1.220703125
816035,0.146972656,1.048706055,0.004516602,-0.793457031,-6.225585938,-0.366210938
816061,0.158569336,1.068603516,0.007080078,-1.281738281,-6.896972656,0.9765625
816087,0.173828125,1.102905273,0.002441406,-3.295898438,-7.263183594,2.990722656
816113,0.192138672,1.137329102,-0.009399414,-5.859375,-7.080078125,7.568359375
816140,0.201049805,1.146362305,-0.014160156,-9.826660156,-6.713867188,13.42773438
816166,0.209960938,1.174804688,-0.039428711,-14.34326172,-5.737304688,17.82226563
816192,0.227050781,1.168945313,-0.036376953,-29.23583984,-2.258300781,22.52197266
816218,0.231079102,1.166992188,-0.026733398,-44.921875,0.915527344,26.3671875
816244,0.239624023,1.113647461,0.000366211,-51.94091797,3.051757813,29.47998047
816270,0.266235352,1.083984375,0.032226563,-58.95996094,7.690429688,32.95898438
816297,0.273925781,1.088745117,0.091918945,-69.27490234,9.460449219,35.82763672
816323,0.280639648,1.07043457,0.116699219,-80.56640625,9.643554688,37.90283203
816349,0.298950195,1.017700195,0.181640625,-96.19140625,9.887695313,40.83251953
816375,0.305908203,0.989379883,0.255004883,-101.5625,13.12255859,43.51806641
816401,0.314697266,0.981445313,0.294189453,-102.6611328,14.28222656,44.73876953
816428,0.337402344,0.939941406,0.350219727,-104.9804688,12.63427734,46.81396484
816454,0.344970703,0.914794922,0.41418457,-110.2905273,7.202148438,49.19433594
816480,0.357910156,0.858154297,0.458984375,-117.4316406,5.676269531,51.14746094
816506,0.371948242,0.776489258,0.505249023,-121.4599609,7.995605469,54.13818359
816533,0.379394531,0.735595703,0.545410156,-121.5820313,9.765625,56.70166016
816559,0.389282227,0.697998047,0.56628418,-123.046875,10.37597656,56.76269531
816585,0.400756836,0.602416992,0.602294922,-124.5727539,11.41357422,58.04443359
816611,0.407592773,0.558105469,0.647216797,-124.4506836,11.90185547,59.93652344
816638,0.420288086,0.510864258,0.67199707,-128.0517578,13.42773438,60.48583984
816664,0.425537109,0.407470703,0.688232422,-128.2348633,17.88330078,60.05859375
816691,0.443115234,0.301025391,0.722412109,-117.2485352,19.89746094,60.18066406
816717,0.445800781,0.266113281,0.762451172,-111.8164063,20.93505859,60.18066406
816743,0.444091797,0.196777344,0.795166016,-110.9008789,22.70507813,58.95996094
816769,0.439941406,0.096069336,0.801513672,-104.9804688,25.51269531,57.55615234
816795,0.410522461,0.084594727,0.805175781,-103.2104492,22.15576172,57.67822266
816822,0.400512695,0.036376953,0.822631836,-107.9711914,22.82714844,58.10546875
816848,0.398193359,-0.095825195,0.846923828,-108.9477539,26.06201172,57.80029297
816874,0.393310547,-0.177612305,0.798095703,-96.92382813,32.10449219,57.06787109
816900,0.359985352,-0.198608398,0.793945313,-94.23828125,32.71484375,56.82373047
816926,0.314208984,-0.235717773,0.797973633,-97.04589844,34.48486328,56.03027344
816953,0.260375977,-0.274536133,0.802978516,-98.6328125,40.0390625,57.6171875
816979,0.233520508,-0.33215332,0.774169922,-102.7832031,40.28320313,60.48583984
817005,0.211669922,-0.48046875,0.776977539,-105.3466797,41.9921875,65.24658203
817031,0.139160156,-0.507080078,0.799560547,-88.8671875,29.41894531,62.74414063
817057,0.121704102,-0.525390625,0.812744141,-80.50537109,31.98242188,65.36865234
817083,0.083251953,-0.597290039,0.760009766,-73.12011719,23.4375,63.65966797
817109,0.056640625,-0.584716797,0.70690918,-65.79589844,18.31054688,57.37304688
817136,0.030639648,-0.614501953,0.729125977,-64.88037109,19.89746094,56.45751953
817162,-0.010620117,-0.635131836,0.741088867,-58.41064453,17.51708984,55.35888672
817188,-0.030639648,-0.673706055,0.693725586,-47.48535156,10.07080078,53.52783203
817214,-0.042602539,-0.677612305,0.674682617,-42.66357422,8.850097656,51.20849609
817240,-0.077758789,-0.684204102,0.679443359,-37.35351563,7.934570313,49.8046875
817267,-0.103515625,-0.711914063,0.652832031,-30.39550781,3.845214844,48.09570313
817293,-0.118774414,-0.710571289,0.618041992,-26.97753906,0.48828125,45.59326172
817319,-0.135986328,-0.703125,0.603881836,-24.71923828,-1.525878906,44.06738281
817345,-0.154785156,-0.717163086,0.577758789,-20.99609375,-2.258300781,43.64013672
817371,-0.165283203,-0.72668457,0.558227539,-18.24951172,-4.211425781,41.68701172
817398,-0.188110352,-0.692382813,0.542602539,-19.04296875,-5.126953125,39.85595703
817424,-0.214233398,-0.711303711,0.536254883,-18.00537109,-3.051757813,40.71044922
817450,-0.231933594,-0.720825195,0.537109375,-16.6015625,-2.258300781,40.71044922
817476,-0.254516602,-0.74621582,0.541625977,-11.96289063,-1.342773438,39.73388672
817502,-0.283447266,-0.735595703,0.552856445,-5.920410156,-1.46484375,38.45214844
817529,-0.289794922,-0.719726563,0.557495117,-6.225585938,-1.46484375,37.04833984
817555,-0.28125,-0.762573242,0.587524414,-8.666992188,-1.953125,35.27832031
817581,-0.334350586,-0.790161133,0.602661133,-15.99121094,-4.028320313,29.90722656
817607,-0.364501953,-0.808227539,0.664428711,-23.07128906,-7.873535156,24.59716797
817634,-0.36706543,-0.884765625,0.649169922,-22.58300781,-11.35253906,22.03369141
817660,-0.358642578,-0.896362305,0.603271484,-15.07568359,-16.6015625,13.42773438
817686,-0.336303711,-0.871582031,0.566162109,-7.080078125,-20.08056641,2.868652344
817712,-0.331420898,-0.80871582,0.550537109,-5.126953125,-18.92089844,-3.173828125
817738,-0.315673828,-0.74621582,0.53503418,-5.798339844,-16.78466797,-8.117675781
817764,-0.308105469,-0.738037109,0.498046875,-5.004882813,-12.51220703,-9.155273438
817790,-0.293212891,-0.711303711,0.505004883,-3.356933594,-8.117675781,-8.422851563
817816,-0.296264648,-0.631469727,0.504394531,0.48828125,-3.234863281,-5.493164063
817843,-0.295043945,-0.685668945,0.507446289,-3.967285156,-1.281738281,-0.244140625
817869,-0.300415039,-0.691040039,0.506225586,-3.845214844,1.098632813,2.746582031
817895,-0.311767578,-0.756225586,0.522460938,0.9765625,1.525878906,4.699707031
817921,-0.319458008,-0.751831055,0.541015625,2.624511719,-0.122070313,3.662109375
817948,-0.319946289,-0.792724609,0.552612305,3.051757813,-0.732421875,3.967285156
817974,-0.317382813,-0.796020508,0.542480469,5.187988281,-0.671386719,1.647949219
818000,-0.314575195,-0.776123047,0.552490234,5.615234375,-2.197265625,-1.708984375
818026,-0.306152344,-0.767089844,0.566040039,7.141113281,-3.356933594,-3.234863281
818053,-0.314453125,-0.723999023,0.549682617,7.751464844,-3.112792969,-3.662109375
818079,-0.322875977,-0.70690918,0.537475586,8.117675781,-3.601074219,-2.685546875
818105,-0.323486328,-0.704956055,0.546020508,5.615234375,-3.051757813,-1.892089844
818131,-0.326904297,-0.724975586,0.568603516,4.211425781,-2.319335938,-0.671386719
818157,-0.329711914,-0.752807617,0.571411133,5.126953125,-3.601074219,-0.915527344
818184,-0.327270508,-0.733886719,0.558837891,5.737304688,-5.798339844,-2.014160156
818210,-0.31652832,-0.743408203,0.557617188,2.319335938,-6.652832031,-2.197265625
818236,-0.309326172,-0.737548828,0.563964844,3.356933594,-7.141113281,-2.624511719
818262,-0.31262207,-0.722412109,0.557739258,4.8828125,-7.32421875,-2.44140625
818288,-0.31652832,-0.708129883,0.545532227,4.333496094,-6.34765625,-0.549316406
818314,-0.317871094,-0.714233398,0.554443359,3.234863281,-2.9296875,1.037597656
818340,-0.327392578,-0.743041992,0.572265625,1.586914063,-2.197265625,0.366210938
818367,-0.331787109,-0.750610352,0.575439453,1.281738281,-2.807617188,-1.281738281
818393,-0.329467773,-0.767944336,0.572387695,-0.48828125,-5.004882813,-4.455566406
818419,-0.327270508,-0.765991211,0.561767578,0.915527344,-6.469726563,-6.469726563
818445,-0.32421875,-0.714111328,0.545288086,1.892089844,-7.385253906,-7.32421875
818472,-0.317871094,-0.679199219,0.549194336,0.854492188,-4.8828125,-4.699707031
818498,-0.321411133,-0.697021484,0.540527344,1.708984375,-1.892089844,-0.366210938
818524,-0.327514648,-0.705810547,0.548706055,2.685546875,-0.9765625,1.098632813
818550,-0.335205078,-0.720458984,0.568237305,2.380371094,-1.525878906,0.610351563
818576,-0.337158203,-0.76159668,0.579833984,1.770019531,-3.234863281,-0.732421875
818603,-0.339477539,-0.761352539,0.571533203,2.44140625,-5.065917969,-2.44140625
818629,-0.330688477,-0.736572266,0.562011719,2.197265625,-9.094238281,-4.943847656
818655,-0.319946289,-0.741333008,0.566772461,0.793457031,-8.605957031,-4.699707031
818681,-0.318481445,-0.722290039,0.554077148,2.746582031,-7.690429688,-4.272460938
818707,-0.321777344,-0.701171875,0.538208008,1.159667969,-5.493164063,-3.356933594
818733,-0.322509766,-0.727661133,0.564086914,-1.342773438,-3.540039063,-1.586914063
818760,-0.327270508,-0.738037109,0.572143555,0.9765625,-2.9296875,-1.647949219
818786,-0.332275391,-0.721313477,0.566772461,1.770019531,-5.249023438,-2.9296875
818812,-0.331542969,-0.713989258,0.578369141,-0.183105469,-5.065917969,-2.319335938
818838,-0.333251953,-0.71875,0.559936523,-0.671386719,-5.554199219,-1.708984375
818865,-0.323974609,-0.739501953,0.563964844,0.671386719,-6.103515625,-1.403808594
818891,-0.322143555,-0.725097656,0.548095703,1.159667969,-5.37109375,-1.647949219
818917,-0.331054688,-0.720825195,0.547973633,0.305175781,-4.8828125,-1.46484375
818943,-0.328857422,-0.727416992,0.544189453,0.732421875,-3.234863281,-0.48828125
818969,-0.322143555,-0.708129883,0.533813477,4.028320313,-4.699707031,-1.098632813
818995,-0.325683594,-0.690429688,0.525756836,4.638671875,-4.333496094,14.89257813
819022,-0.337158203,-0.664916992,0.523681641,5.554199219,-3.601074219,1.342773438
819048,-0.356933594,-0.712890625,0.5625,3.784179688,-1.586914063,5.065917969
819074,-0.367431641,-0.760253906,0.577636719,5.187988281,-1.770019531,4.699707031
819100,-0.370483398,-0.769775391,0.583129883,5.737304688,-3.90625,1.403808594
819126,-0.35559082,-0.796630859,0.578613281,1.892089844,-7.202148438,-3.234863281
819153,-0.348144531,-0.784179688,0.567382813,3.051757813,-8.728027344,-7.934570313
819179,-0.341674805,-0.735595703,0.556884766,4.760742188,-9.460449219,-9.887695313
819205,-0.336425781,-0.675537109,0.55871582,3.479003906,-7.263183594,-9.216308594
819231,-0.331665039,-0.65246582,0.555053711,1.037597656,-3.601074219,-5.249023438
819257,-0.330810547,-0.668334961,0.564697266,1.342773438,-1.770019531,-2.868652344
819284,-0.335693359,-0.665527344,0.557495117,2.380371094,-1.220703125,-0.671386719
819310,-0.337280273,-0.723388672,0.559082031,0.610351563,-1.037597656,1.098632813
819336,-0.344970703,-0.743774414,0.573120117,2.44140625,-1.342773438,0.48828125
819362,-0.347167969,-0.7265625,0.567382813,2.380371094,-4.516601563,-1.586914063
819388,-0.338623047,-0.74230957,0.557617188,0.48828125,-5.065917969,-1.159667969
819415,-0.34387207,-0.728393555,0.561889648,3.41796875,-3.662109375,-1.098632813
819441,-0.346801758,-0.677612305,0.5546875,5.37109375,-4.028320313,-0.427246094
819467,-0.342773438,-0.697387695,0.561767578,1.098632813,-1.892089844,1.586914063
819493,-0.354614258,-0.729125977,0.576049805,0.427246094,-0.427246094,1.953125
819520,-0.367919922,-0.724731445,0.576171875,2.685546875,-4.150390625,-0.671386719
819546,-0.358520508,-0.731323242,0.565063477,0.610351563,-6.469726563,-2.380371094
819572,-0.357177734,-0.733154297,0.579101563,0.183105469,-6.8359375,-3.479003906
819598,-0.363769531,-0.700927734,0.564575195,1.037597656,-8.483886719,-4.8828125
819624,-0.351806641,-0.70690918,0.569580078,-0.793457031,-6.958007813,-3.723144531
819651,-0.358154297,-0.70703125,0.571411133,-1.770019531,-5.126953125,-3.356933594
819677,-0.361083984,-0.693969727,0.573486328,-1.770019531,-5.493164063,-3.479003906
819703,-0.361938477,-0.676513672,0.554077148,-4.577636719,-6.164550781,-2.44140625
819729,-0.362426758,-0.698242188,0.541259766,-7.141113281,-6.591796875,-1.46484375
819755,-0.358642578,-0.716308594,0.537109375,-8.056640625,-7.507324219,-1.342773438
819782,-0.356079102,-0.698242188,0.526000977,-9.826660156,-7.568359375,-1.708984375
819808,-0.351196289,-0.73840332,0.533813477,-11.41357422,-6.286621094,-0.854492188
819834,-0.349243164,-0.758056641,0.520996094,-9.033203125,-6.652832031,-1.586914063
819860,-0.344482422,-0.741333008,0.521972656,-4.39453125,-7.080078125,-3.173828125
819886,-0.34753418,-0.744384766,0.526733398,-1.098632813,-4.39453125,-2.868652344
819913,-0.356079102,-0.740356445,0.540283203,3.723144531,-3.90625,-2.868652344
819939,-0.365844727,-0.693237305,0.528808594,4.333496094,-4.089355469,-2.685546875
819965,-0.36340332,-0.745117188,0.548217773,0.854492188,-4.028320313,-1.037597656
819991,-0.358032227,-0.752075195,0.550292969,3.723144531,-3.845214844,-1.342773438
820017,-0.361816406,-0.715698242,0.534912109,6.896972656,-7.32421875,-3.845214844
820044,-0.358642578,-0.732177734,0.547119141,2.014160156,-5.798339844,-2.624511719
820070,-0.357788086,-0.745849609,0.548583984,1.403808594,-5.737304688,-2.990722656
820096,-0.356079102,-0.713623047,0.531494141,3.723144531,-7.934570313,-4.516601563
820122,-0.352783203,-0.744750977,0.545043945,1.770019531,-6.896972656,-3.540039063
820149,-0.349975586,-0.725830078,0.534423828,3.051757813,-5.554199219,-3.356933594
820175,-0.35168457,-0.718139648,0.536865234,0.244140625,-6.042480469,-3.662109375
820201,-0.349243164,-0.728637695,0.535644531,-1.403808594,-4.211425781,-2.319335938
820227,-0.350830078,-0.735961914,0.547729492,-0.427246094,-4.333496094,-2.624511719
820253,-0.35559082,-0.725708008,0.536132813,1.220703125,-5.37109375,-3.173828125
820280,-0.353881836,-0.724853516,0.535400391,-0.122070313,-4.699707031,-2.746582031
820306,-0.352661133,-0.734985352,0.537841797,-0.671386719,-4.516601563,-2.868652344
820332,-0.352416992,-0.751098633,0.540039063,2.380371094,-5.065917969,-3.479003906
820358,-0.358398438,-0.698852539,0.528930664,4.272460938,-5.859375,-4.39453125
820384,-0.353027344,-0.709350586,0.537231445,0.061035156,-6.591796875,-3.845214844
820411,-0.351318359,-0.755004883,0.556884766,0.427246094,-5.310058594,-2.563476563
820437,-0.354858398,-0.724365234,0.538696289,5.920410156,-8.361816406,-4.028320313
820463,-0.349975586,-0.693359375,0.522216797,3.601074219,-6.34765625,-2.44140625
820489,-0.347045898,-0.749267578,0.549560547,0.549316406,-4.8828125,-1.403808594
820515,-0.355102539,-0.743408203,0.5390625,7.507324219,-6.713867188,-3.41796875
820542,-0.356201172,-0.682861328,0.538085938,4.211425781,-6.8359375,-3.234863281
820568,-0.351806641,-0.728881836,0.538085938,-2.380371094,-5.126953125,-1.647949219
820594,-0.352905273,-0.770263672,0.561645508,1.342773438,-5.737304688,-2.746582031
820620,-0.354370117,-0.728759766,0.541381836,6.469726563,-7.873535156,-4.699707031
820647,-0.349121094,-0.6953125,0.52331543,2.9296875,-6.896972656,-4.028320313
820673,-0.35144043,-0.75769043,0.559326172,-1.159667969,-4.455566406,-3.356933594
820699,-0.355957031,-0.72277832,0.538818359,4.028320313,-6.8359375,-5.798339844
820725,-0.348876953,-0.715332031,0.5390625,3.234863281,-7.568359375,-6.286621094
820751,-0.347900391,-0.708129883,0.536010742,1.46484375,-5.310058594,-5.065917969
820778,-0.341186523,-0.708740234,0.537719727,0.915527344,-6.774902344,-5.249023438
820804,-0.342651367,-0.734008789,0.549316406,1.831054688,-4.455566406,-3.479003906
820830,-0.344238281,-0.719360352,0.55859375,5.798339844,-3.662109375,-2.807617188
820856,-0.339599609,-0.706420898,0.547973633,4.821777344,-4.455566406,-2.136230469
820883,-0.341064453,-0.719970703,0.556640625,2.868652344,-3.356933594,-1.220703125
820909,-0.348876953,-0.720458984,0.562866211,3.356933594,-4.455566406,-1.525878906
820935,-0.342651367,-0.717407227,0.54675293,2.502441406,-6.591796875,-2.014160156
820961,-0.346069336,-0.733642578,0.557617188,0.915527344,-5.798339844,-2.014160156
820987,-0.353393555,-0.73046875,0.562255859,3.173828125,-6.225585938,-2.380371094
821014,-0.351196289,-0.717041016,0.557250977,2.990722656,-6.530761719,-2.868652344
821040,-0.354248047,-0.713378906,0.552978516,0.183105469,-6.042480469,-2.746582031
821066,-0.359375,-0.758056641,0.563598633,-0.122070313,-7.32421875,-3.845214844
821092,-0.365112305,-0.766845703,0.561523438,4.455566406,-9.033203125,-7.141113281
821118,-0.368530273,-0.756958008,0.555541992,7.446289063,-10.13183594,-10.7421875
821144,-0.375488281,-0.796508789,0.527954102,5.615234375,-10.92529297,-14.40429688
821171,-0.364746094,-0.834228516,0.520019531,8.911132813,-13.42773438,-22.94921875
821197,-0.355712891,-0.833007813,0.51184082,13.73291016,-16.54052734,-33.50830078
821223,-0.335571289,-0.865356445,0.497802734,25.20751953,-18.49365234,-41.50390625
821249,-0.329101563,-0.796875,0.482910156,37.84179688,-18.49365234,-54.07714844
821275,-0.321044922,-0.759277344,0.480102539,36.74316406,-18.79882813,-63.72070313
821302,-0.280029297,-0.838745117,0.536499023,43.33496094,-16.96777344,-66.95556641
821328,-0.272583008,-0.856567383,0.584350586,74.95117188,-10.7421875,-72.32666016
821354,-0.270629883,-0.749145508,0.544921875,102.9663086,-15.25878906,-82.27539063
821380,-0.204589844,-0.725585938,0.558349609,114.7460938,-12.81738281,-85.75439453
821407,-0.185302734,-0.754882813,0.652709961,143.0664063,5.187988281,-85.02197266
821433,-0.224731445,-0.571899414,0.708374023,179.6264648,11.35253906,-86.54785156
821459,-0.216186523,-0.425537109,0.70690918,193.1762695,2.258300781,-89.59960938
821485,-0.183349609,-0.179321289,0.682861328,176.6967773,-12.87841797,-86.97509766
821512,-0.110107422,-0.099975586,0.731811523,122.0092773,-7.263183594,-79.46777344
821538,-0.084716797,-0.262695313,0.803466797,103.8818359,1.403808594,-77.63671875
821564,-0.102661133,-0.264526367,0.848754883,128.0517578,-4.028320313,-76.47705078
821590,-0.105224609,-0.091552734,0.837036133,151.3671875,-34.42382813,-78.55224609
821616,-0.072631836,-0.016357422,0.820556641,156.6772461,-40.89355469,-78.97949219
821642,-0.054077148,0.054931641,0.785644531,162.1704102,-29.35791016,-74.58496094
821669,-0.279541016,0.115478516,1.091552734,172.3022461,-17.76123047,-72.93701172
821695,0.056640625,0.322631836,0.777832031,179.0161133,-83.43505859,-64.02587891
821721,-0.029052734,0.400634766,0.795776367,170.1049805,-59.20410156,-67.01660156
821747,0.022705078,0.517456055,0.673706055,173.828125,-57.18994141,-64.69726563
821773,0.038452148,0.65222168,0.646606445,168.6401367,-55.29785156,-64.453125
821799,0.045043945,0.706054688,0.693725586,151.0009766,-46.93603516,-65.12451172
821826,0.197875977,0.620361328,0.494018555,145.6298828,-45.34912109,-50.47607422
821852,0.05078125,0.832641602,0.590576172,142.4560547,-23.55957031,-58.16650391
821878,0.089111328,0.83581543,0.534912109,129.4555664,-33.26416016,-39.0625
821904,0.066650391,0.966552734,0.518554688,124.2675781,-35.52246094,-42.84667969
821930,0.09362793,0.986938477,0.44543457,116.8823242,-59.5703125,-35.64453125
821957,0.096923828,1.052001953,0.385742188,97.10693359,-50.65917969,-34.72900391
821983,0.111328125,1.139770508,0.425048828,76.11083984,-38.63525391,-32.16552734
822009,0.098022461,1.104248047,0.409423828,67.13867188,-27.58789063,-24.53613281
822035,0.086425781,1.096435547,0.40246582,66.22314453,-26.79443359,-19.28710938
822061,0.072265625,1.134887695,0.368530273,65.67382813,-30.63964844,-11.04736328
822087,0.073364258,1.127807617,0.345581055,65.30761719,-36.07177734,-1.342773438
822114,0.100830078,1.092895508,0.326171875,63.84277344,-38.94042969,3.173828125
822140,0.134643555,1.054199219,0.270385742,65.61279297,-39.48974609,7.934570313
822166,0.178955078,1.077758789,0.259765625,65.30761719,-35.40039063,8.30078125
822192,0.206054688,1.084228516,0.272705078,58.77685547,-30.39550781,5.920410156
822219,0.213378906,1.12512207,0.327758789,41.74804688,-21.484375,0.549316406
822245,0.215698242,1.157348633,0.333984375,14.03808594,-23.37646484,-4.455566406
822271,0.197998047,1.089355469,0.300170898,-0.732421875,-22.58300781,-3.90625
822297,0.162841797,1.040283203,0.221191406,-5.126953125,-26.06201172,-1.953125
827336,0.2265625,1.132202148,0.29675293,-14.28222656,-8.605957031,8.239746094
827362,0.263061523,1.142211914,0.315185547,-20.87402344,-7.019042969,13.79394531
827388,0.259521484,1.13671875,0.299682617,-23.62060547,-6.103515625,16.90673828
827415,0.269287109,1.168334961,0.28918457,-29.54101563,-7.446289063,20.08056641
827441,0.332519531,1.135864258,0.31640625,-43.9453125,-7.629394531,25.20751953
827467,0.33581543,1.108520508,0.343017578,-49.8046875,-5.615234375,46.50878906
827493,0.337036133,1.123901367,0.349975586,-57.98339844,-1.46484375,39.00146484
827519,0.31640625,1.092285156,0.345947266,-67.07763672,0.854492188,45.71533203
827546,0.309692383,1.085449219,0.357666016,-75.07324219,5.37109375,49.13330078
827572,0.299682617,1.035888672,0.385131836,-92.04101563,9.094238281,50.78125
827598,0.299194336,0.961791992,0.426147461,-106.8725586,13.61083984,54.38232422
827624,0.302978516,0.919799805,0.459472656,-115.9057617,20.81298828,59.87548828
827650,0.306518555,0.88684082,0.468139648,-124.8168945,22.52197266,60.546875
827676,0.293579102,0.794067383,0.544067383,-135.3149414,23.62060547,59.5703125
827703,0.310302734,0.696777344,0.582519531,-149.1088867,23.01025391,58.22753906
827729,0.296020508,0.528564453,0.633300781,-151.1230469,20.44677734,53.58886719
827755,0.321533203,0.547973633,0.710571289,-143.6767578,34.48486328,33.14208984
827781,0.357910156,0.464233398,0.727050781,-147.0336914,48.88916016,37.59765625
827808,0.288574219,0.332641602,0.690063477,-148.6816406,41.87011719,44.55566406
827834,0.28515625,0.205078125,0.711669922,-145.5078125,37.109375,44.37255859
827860,0.265136719,0.133178711,0.792602539,-135.4980469,41.015625,42.48046875
827886,0.256958008,0.107299805,0.806518555,-131.5307617,46.44775391,40.40527344
827912,0.223876953,0.034912109,0.785888672,-139.7705078,47.54638672,40.71044922
827938,0.192138672,-0.135742188,0.775512695,-139.5874023,44.98291016,43.45703125
827965,0.177490234,-0.19152832,0.788696289,-124.5117188,43.76220703,44.31152344
827991,0.138305664,-0.114379883,0.802001953,-114.074707,41.93115234,45.34912109
828018,0.097045898,-0.276855469,0.834960938,-120.5444336,39.67285156,52.42919922
828044,0.066162109,-0.412109375,0.848510742,-107.4829102,38.81835938,57.43408203
828070,0.040405273,-0.330078125,0.789794922,-79.83398438,30.33447266,52.85644531
828097,0.009033203,-0.369750977,0.800048828,-75.80566406,25.93994141,54.38232422
828123,-0.018310547,-0.422729492,0.813720703,-70.55664063,19.89746094,57.49511719
828149,-0.032226563,-0.486450195,0.776367188,-54.50439453,18.24951172,57.31201172
828175,-0.080444336,-0.466308594,0.759155273,-47.11914063,16.35742188,56.27441406
828201,-0.089233398,-0.49621582,0.756835938,-44.79980469,9.887695313,55.96923828
828228,-0.116821289,-0.54296875,0.781982422,-41.19873047,6.469726563,55.78613281
828254,-0.147949219,-0.561279297,0.758178711,-33.87451172,0.671386719,54.62646484
828280,-0.158447266,-0.590332031,0.718383789,-27.28271484,-5.249023438,50.96435547
828306,-0.169555664,-0.594360352,0.723632813,-26.06201172,-8.483886719,48.52294922
828332,-0.178466797,-0.579589844,0.721435547,-27.52685547,-6.103515625,45.16601563
828359,-0.191650391,-0.600463867,0.744262695,-26.06201172,-3.295898438,42.60253906
828385,-0.205322266,-0.619506836,0.738037109,-22.03369141,-2.624511719,40.89355469
828411,-0.227539063,-0.623413086,0.697875977,-17.94433594,-0.549316406,37.23144531
828437,-0.241455078,-0.614257813,0.716674805,-18.79882813,4.8828125,35.82763672
828463,-0.26940918,-0.637207031,0.739135742,-18.31054688,8.728027344,34.79003906
828490,-0.294555664,-0.645996094,0.75390625,-13.18359375,10.43701172,30.51757813
828516,-0.315063477,-0.682495117,0.76184082,-7.751464844,10.31494141,27.03857422
828542,-0.333740234,-0.672241211,0.749145508,-2.502441406,9.27734375,23.13232422
828568,-0.354370117,-0.649169922,0.740844727,-0.9765625,6.469726563,16.6015625
828594,-0.359008789,-0.630371094,0.747924805,-2.502441406,3.112792969,11.16943359
828620,-0.361328125,-0.618041992,0.750366211,-2.685546875,2.014160156,8.30078125
828647,-0.413574219,-0.67578125,0.806518555,-3.723144531,5.37109375,5.187988281
828673,-0.343017578,-0.641113281,0.716674805,7.019042969,-6.652832031,-0.061035156
828699,-0.330810547,-0.539306641,0.696655273,7.507324219,-8.361816406,-1.647949219
828725,-0.330566406,-0.583984375,0.712402344,1.770019531,-6.591796875,-1.403808594
828751,-0.322753906,-0.610351563,0.704345703,3.90625,-4.272460938,-3.784179688
828778,-0.319946289,-0.584594727,0.701904297,7.873535156,-6.896972656,-4.150390625
828804,-0.313598633,-0.533447266,0.682373047,5.737304688,-10.49804688,-3.540039063
828830,-0.298583984,-0.570556641,0.690917969,-1.46484375,-7.629394531,-0.122070313
828856,-0.297729492,-0.598754883,0.680419922,-2.075195313,-4.150390625,-0.183105469
828883,-0.315429688,-0.628662109,0.684692383,0.305175781,-4.638671875,-2.075195313
828909,-0.317626953,-0.594848633,0.691650391,1.586914063,-5.249023438,-5.310058594
828935,-0.317626953,-0.609863281,0.711181641,3.295898438,-5.432128906,-8.728027344
828961,-0.327636719,-0.578491211,0.721801758,5.798339844,-6.164550781,-10.31494141
828987,-0.324584961,-0.587524414,0.735229492,5.37109375,-8.483886719,-11.41357422
829014,-0.316650391,-0.570800781,0.745483398,9.27734375,-7.629394531,-12.08496094
829040,-0.308227539,-0.553344727,0.757080078,9.826660156,-6.103515625,-11.90185547
829066,-0.293945313,-0.548828125,0.761962891,7.385253906,-6.286621094,-10.55908203
829092,-0.297851563,-0.546264648,0.76184082,4.333496094,-3.295898438,-8.117675781
829119,-0.300170898,-0.567016602,0.768066406,2.197265625,-2.868652344,-6.103515625
829145,-0.294921875,-0.572753906,0.766479492,0.854492188,-4.39453125,-3.601074219
829171,-0.287109375,-0.56652832,0.746704102,-0.244140625,-7.32421875,-3.173828125
829197,-0.274536133,-0.600341797,0.74206543,-2.807617188,-9.460449219,-3.051757813
829223,-0.181274414,-0.542724609,0.592651367,-1.342773438,-10.19287109,-4.516601563
829250,-0.267089844,-0.614746094,0.723510742,4.333496094,-17.63916016,-8.483886719
829276,-0.271728516,-0.565429688,0.69909668,6.652832031,-20.08056641,-9.948730469
829302,-0.256958008,-0.559082031,0.700805664,5.798339844,-15.07568359,-9.033203125
829328,-0.267456055,-0.568725586,0.731689453,2.502441406,-8.30078125,-8.728027344
829354,-0.26550293,-0.5546875,0.7265625,3.967285156,-9.643554688,-8.117675781
829381,-0.265625,-0.571166992,0.720703125,2.9296875,-8.361816406,-6.042480469
829407,-0.263916016,-0.583740234,0.710693359,2.563476563,-8.056640625,-4.577636719
829433,-0.256713867,-0.592895508,0.722045898,2.990722656,-7.873535156,-5.004882813
829460,-0.253417969,-0.578491211,0.724121094,3.601074219,-7.507324219,-5.920410156
829486,-0.237792969,-0.598388672,0.724121094,1.281738281,-6.286621094,-5.859375
829512,-0.239257813,-0.611938477,0.729980469,2.258300781,-4.638671875,-5.920410156
829538,-0.244140625,-0.592895508,0.737792969,5.676269531,-4.577636719,-6.591796875
829565,-0.246337891,-0.558105469,0.752807617,5.798339844,-2.563476563,-6.896972656
829591,-0.252075195,-0.559814453,0.762451172,4.028320313,-0.305175781,-5.37109375
829617,-0.256835938,-0.555664063,0.765136719,3.479003906,-0.610351563,-4.577636719
829643,-0.262451172,-0.561523438,0.755737305,3.234863281,-2.624511719,-3.723144531
829669,-0.259643555,-0.593139648,0.767578125,2.380371094,-2.746582031,-3.051757813
829696,-0.258544922,-0.564941406,0.767578125,2.9296875,-3.601074219,-2.624511719
829722,-0.253173828,-0.580566406,0.755371094,3.41796875,-4.638671875,-2.014160156
829748,-0.261108398,-0.585571289,0.743286133,2.44140625,-5.920410156,-3.90625
829774,-0.254394531,-0.590332031,0.747070313,2.502441406,-7.385253906,-3.723144531
829801,-0.252685547,-0.602783203,0.755981445,0.9765625,-6.8359375,-2.624511719
829827,-0.252441406,-0.590209961,0.755249023,2.9296875,-7.690429688,-3.90625
829853,-0.253173828,-0.597290039,0.752075195,2.868652344,-8.239746094,-4.39453125
829879,-0.253540039,-0.594238281,0.749633789,3.295898438,-8.7890625,-5.187988281
829905,-0.254394531,-0.577392578,0.762451172,3.479003906,-9.094238281,-6.225585938
829932,-0.25378418,-0.560913086,0.756103516,3.295898438,-10.25390625,-6.591796875
829958,-0.251586914,-0.565429688,0.745117188,1.403808594,-10.80322266,-6.958007813
829984,-0.250244141,-0.573242188,0.747192383,1.037597656,-10.7421875,-6.958007813
830010,-0.25,-0.57409668,0.750610352,1.647949219,-10.19287109,-6.774902344
830036,-0.248779297,-0.552978516,0.754272461,1.220703125,-8.911132813,-6.164550781
830062,-0.240600586,-0.575317383,0.741333008,0.183105469,-7.385253906,-5.432128906
830088,-0.236694336,-0.591186523,0.736450195,0.793457031,-6.896972656,-5.737304688
830115,-0.238037109,-0.581787109,0.753051758,3.41796875,-7.629394531,-6.164550781
830141,-0.231933594,-0.567504883,0.754760742,3.295898438,-6.591796875,-6.34765625
830167,-0.235473633,-0.579101563,0.754760742,2.807617188,-4.699707031,-6.164550781
830193,-0.236816406,-0.578735352,0.75769043,2.9296875,-5.37109375,-6.652832031
830220,-0.225708008,-0.600219727,0.751953125,5.126953125,-7.385253906,-7.019042969
830246,-0.22265625,-0.600341797,0.761962891,8.544921875,-6.042480469,-7.385253906
830272,-0.226196289,-0.548095703,0.773925781,10.07080078,-6.042480469,-7.202148438
830298,-0.220947266,-0.55847168,0.763427734,3.967285156,-5.920410156,-7.019042969
830324,-0.221679688,-0.590820313,0.768798828,4.577636719,-8.117675781,-7.385253906
830351,-0.217285156,-0.584106445,0.781494141,6.713867188,-9.338378906,-8.056640625
830377,-0.208740234,-0.552734375,0.764282227,6.103515625,-11.41357422,-9.643554688
830403,-0.208862305,-0.568603516,0.767089844,3.784179688,-8.911132813,-9.27734375
830429,-0.209594727,-0.594360352,0.78137207,6.652832031,-7.934570313,-8.7890625
830456,-0.208618164,-0.572021484,0.787109375,10.80322266,-8.544921875,-10.31494141
830482,-0.213012695,-0.599365234,0.806274414,11.65771484,-9.27734375,-12.26806641
830508,-0.205566406,-0.644287109,0.807128906,17.76123047,-9.887695313,-13.73291016
830534,-0.208740234,-0.670410156,0.819335938,38.26904297,-8.728027344,-17.15087891
830560,-0.223388672,-0.440673828,0.765380859,40.28320313,-11.84082031,-22.52197266
830587,-0.193847656,-0.487426758,0.77722168,22.94921875,-16.29638672,-23.86474609
830613,-0.150146484,-0.646972656,0.79284668,23.74267578,-8.911132813,-22.88818359
830639,-0.198486328,-0.754272461,0.876831055,67.01660156,6.103515625,-24.53613281
830665,-0.239746094,-0.51953125,0.791503906,97.65625,-7.446289063,-32.89794922
830691,-0.182373047,-0.342651367,0.738769531,98.87695313,-23.07128906,-39.30664063
830718,-0.171875,-0.327026367,0.827026367,72.14355469,-8.605957031,-37.59765625
830744,-0.177734375,-0.345703125,0.883544922,59.50927734,12.20703125,-33.99658203
830770,-0.194580078,-0.438598633,0.913208008,66.46728516,14.46533203,-33.93554688
830796,-0.209960938,-0.369750977,0.912719727,86.42578125,-15.19775391,-39.48974609
830822,-0.15234375,-0.237304688,0.891235352,93.99414063,-32.53173828,-40.10009766
830849,-0.160400391,-0.189453125,0.897583008,87.09716797,-50.17089844,-36.68212891
830875,-0.064697266,-0.160888672,0.936035156,81.60400391,-49.98779297,-38.87939453
830901,-0.061035156,-0.130737305,0.948120117,81.84814453,-45.22705078,-39.30664063
830927,-0.025390625,-0.009277344,0.936523438,77.57568359,-45.28808594,-37.84179688
830953,0.013061523,-0.020263672,0.958984375,62.43896484,-43.57910156,-37.47558594
830980,0.021240234,-0.051269531,0.965820313,67.07763672,-40.46630859,-37.53662109
831006,0.027954102,0.012084961,0.950195313,77.51464844,-42.17529297,-36.98730469
831032,0.060668945,0.082275391,0.956542969,82.94677734,-43.39599609,-36.07177734
831058,0.069335938,0.067993164,0.954223633,93.87207031,-42.29736328,-35.21728516
831085,0.083251953,0.151245117,0.91809082,107.2998047,-43.70117188,-33.81347656
831111,0.114746094,0.263916016,0.875732422,113.0981445,-42.90771484,-29.66308594
831137,0.108398438,0.295288086,0.875244141,113.1591797,-45.41015625,-27.95410156
831163,0.135620117,0.357421875,0.834472656,115.1733398,-49.37744141,-26.48925781
831189,0.171508789,0.397583008,0.807495117,109.7412109,-50.29296875,-25.57373047
831216,0.186645508,0.431030273,0.763671875,112.121582,-50.78125,-25.32958984
831242,0.186157227,0.48059082,0.719970703,113.6474609,-50.53710938,-24.71923828
831268,0.216186523,0.552978516,0.676757813,108.7036133,-51.57470703,-21.72851563
831294,0.27355957,0.630493164,0.618041992,97.04589844,-52.00195313,-21.24023438
831321,0.278442383,0.641113281,0.63684082,87.52441406,-49.62158203,-21.91162109
831347,0.239013672,0.579711914,0.619384766,90.14892578,-44.25048828,-23.37646484
831373,0.233886719,0.69140625,0.582885742,101.2573242,-44.06738281,-19.28710938
831399,0.243896484,0.769897461,0.528076172,99.85351563,-46.99707031,-17.39501953
831425,0.232299805,0.811523438,0.521972656,93.20068359,-57.31201172,-15.19775391
831451,0.270629883,0.806274414,0.500366211,94.42138672,-59.63134766,-13.97705078
831478,0.287109375,0.867675781,0.452026367,96.06933594,-56.57958984,-14.09912109
831504,0.270996094,0.98059082,0.368286133,89.53857422,-56.21337891,-14.09912109
831530,0.296142578,1.035888672,0.343017578,69.70214844,-61.03515625,-11.35253906
831556,0.312744141,1.029663086,0.346435547,58.95996094,-61.88964844,-8.972167969
831582,0.348510742,1.02746582,0.311401367,52.00195313,-58.10546875,-7.873535156
831609,0.354736328,1.075439453,0.258178711,50.23193359,-56.88476563,-4.516601563
831635,0.325805664,1.05090332,0.270751953,54.07714844,-56.82373047,-0.427246094
831661,0.428100586,1.103149414,0.228271484,53.16162109,-59.99755859,4.8828125
831687,0.553710938,1.101196289,0.209594727,39.79492188,-50.17089844,-0.183105469
831714,0.533325195,1.098266602,0.226318359,19.71435547,-21.91162109,-16.23535156
831740,0.380981445,1.025268555,0.151367188,20.99609375,-12.39013672,-17.94433594
831766,0.344726563,1.008178711,0.002197266,25.87890625,-17.578125,-15.44189453
831792,0.370117188,0.957763672,0.008422852,18.73779297,-25.08544922,-9.27734375
831818,0.37878418,0.901977539,0.067260742,15.31982422,-20.32470703,-6.774902344
831844,0.383666992,0.877075195,0.051635742,9.399414063,-5.004882813,-9.948730469
831871,0.330078125,0.885864258,0.034790039,3.723144531,1.892089844,-14.6484375
831897,0.310668945,0.859008789,0.043334961,4.699707031,1.037597656,-17.63916016
831923,0.28918457,0.941650391,0.113647461,12.39013672,3.540039063,-22.64404297
831949,0.294433594,0.993041992,0.138061523,11.53564453,5.981445313,-23.37646484
831975,0.307739258,0.985473633,0.130371094,9.216308594,5.187988281,-25.08544922
832001,0.301757813,1.008911133,0.123535156,12.63427734,-1.342773438,-29.17480469
832028,0.292724609,1.054321289,0.153564453,15.31982422,-5.432128906,-27.89306641
832054,0.289550781,1.049804688,0.135864258,13.85498047,-5.615234375,-25.20751953
832080,0.242675781,1.105834961,0.104980469,11.35253906,-10.07080078,-20.93505859
832106,0.245483398,1.098876953,0.088134766,8.911132813,-17.33398438,-13.12255859
832132,0.246704102,1.093994141,0.090209961,4.333496094,-20.56884766,-9.338378906
832159,0.256469727,1.046875,0.079833984,2.075195313,-19.22607422,-3.295898438
832185,0.266601563,1.008789063,0.067871094,4.211425781,-15.99121094,0.183105469
832211,0.268310547,0.995483398,0.069091797,4.028320313,-14.09912109,3.112792969
832237,0.265625,0.983520508,0.041259766,4.333496094,-11.47460938,2.014160156
832263,0.264770508,0.981567383,0.025878906,3.540039063,-11.53564453,0
832289,0.268188477,0.978637695,0.026123047,2.9296875,-10.62011719,-1.098632813
832315,0.263183594,0.97253418,0.014160156,3.540039063,-5.859375,-3.295898438
832342,0.251220703,0.979370117,-0.000976563,3.173828125,-2.319335938,-4.8828125
832368,0.25012207,0.988769531,0.014892578,2.380371094,-0.732421875,-5.493164063
832394,0.249633789,0.991699219,0.033935547,0.671386719,2.624511719,-6.103515625
832420,0.24230957,0.996948242,0.048583984,-0.671386719,3.784179688,-6.958007813
832446,0.235473633,1.006347656,0.055419922,0.427246094,3.540039063,-6.713867188
832473,0.23449707,1.009155273,0.071166992,-0.915527344,2.990722656,-6.103515625
832499,0.23034668,1.002807617,0.071411133,-2.624511719,2.746582031,-5.004882813
832525,0.223876953,0.998535156,0.074584961,-4.272460938,1.098632813,-4.028320313
832551,0.214355469,0.997802734,0.06652832,-5.249023438,-0.366210938,-3.540039063
832577,0.218139648,0.993774414,0.072509766,-6.164550781,-1.647949219,-3.41796875
832603,0.224853516,0.992919922,0.080200195,-6.530761719,-1.281738281,-3.051757813
832630,0.236083984,0.999633789,0.076538086,-6.286621094,-0.9765625,-3.173828125
832656,0.229736328,1.000366211,0.07800293,-3.051757813,-1.770019531,-3.967285156
832682,0.229980469,1.009765625,0.088256836,-1.403808594,-1.46484375,-3.479003906
832709,0.226318359,1.018310547,0.091674805,-2.014160156,-1.220703125,-3.601074219
832735,0.232788086,1.014770508,0.097412109,-4.455566406,-1.770019531,-2.380371094
832761,0.235839844,0.998657227,0.108886719,-6.286621094,-2.807617188,-0.366210938
832788,0.235473633,0.981689453,0.105957031,-6.286621094,-2.685546875,0.061035156
832814,0.228515625,0.967407227,0.096557617,-4.455566406,-1.953125,-1.098632813
832840,0.211791992,0.962890625,0.093261719,-3.601074219,-1.831054688,-3.723144531
832866,0.210327148,0.987426758,0.104370117,-5.554199219,-3.051757813,-5.065917969
832892,0.229003906,1.01171875,0.136108398,-10.7421875,-3.784179688,-5.798339844
832919,0.260986328,1.066040039,0.146728516,-12.87841797,-4.577636719,-5.065917969
832945,0.277587891,1.099121094,0.16003418,-11.41357422,-4.516601563,-3.967285156
832971,0.28515625,1.143798828,0.183959961,-13.24462891,-5.187988281,-0.9765625
832997,0.295410156,1.162109375,0.172973633,-20.81298828,-5.859375,4.150390625
833023,0.30456543,1.134399414,0.157104492,-28.68652344,-6.713867188,7.263183594
833049,0.3046875,1.072265625,0.164916992,-35.09521484,-4.089355469,10.31494141
833075,0.291625977,1.107421875,0.166259766,-34.91210938,0.610351563,12.32910156
833102,0.278564453,1.120727539,0.16796875,-40.64941406,0.48828125,16.17431641
833128,0.315185547,1.047241211,0.232910156,-56.45751953,2.685546875,20.01953125
833154,0.325073242,1.015625,0.280151367,-62.13378906,11.65771484,23.80371094
833180,0.323974609,1.063598633,0.297973633,-62.86621094,19.59228516,25.32958984
833206,0.303833008,1.067871094,0.345581055,-78.67431641,23.4375,25.390625
833232,0.306762695,0.896240234,0.437988281,-101.6235352,27.22167969,26.12304688
833258,0.311889648,0.834716797,0.494384766,-103.7597656,30.76171875,31.79931641
833284,0.281494141,0.994384766,0.517578125,-98.32763672,29.47998047,35.33935547
833311,0.307861328,0.889526367,0.584838867,-114.3798828,34.91210938,35.76660156
833337,0.318725586,0.823120117,0.580566406,-128.4790039,37.78076172,36.31591797
833363,0.293457031,0.701782227,0.60144043,-132.7514648,35.15625,31.92138672
833389,0.345336914,0.729003906,0.657348633,-133.4838867,43.15185547,17.82226563
833416,0.283325195,0.643310547,0.669189453,-140.0756836,40.95458984,21.30126953
833442,0.279663086,0.463256836,0.625366211,-135.9863281,49.56054688,19.10400391
833468,0.258666992,0.440429688,0.707397461,-116.2109375,43.57910156,21.484375
833494,0.266479492,0.431884766,0.752807617,-117.0043945,23.13232422,27.64892578
833520,0.285522461,0.333984375,0.764038086,-121.7041016,26.3671875,26.48925781
833546,0.24230957,0.190917969,0.762084961,-117.2485352,40.0390625,21.97265625
833572,0.188842773,0.187011719,0.725585938,-100.9521484,41.25976563,28.13720703
833599,0.173950195,0.190551758,0.765869141,-94.90966797,38.63525391,28.19824219
833625,0.145019531,0.1328125,0.857666016,-89.17236328,40.89355469,28.3203125
833651,0.127807617,0.056762695,0.850219727,-89.59960938,45.47119141,30.21240234
833677,0.083496094,-0.028808594,0.838500977,-83.74023438,45.59326172,29.90722656
833703,0.059692383,-0.058959961,0.871337891,-67.26074219,38.14697266,32.83691406
833729,0.026367188,-0.039916992,0.919555664,-66.04003906,34.36279297,35.21728516
833756,0.004150391,-0.078735352,0.926147461,-69.27490234,32.59277344,35.82763672
833782,-0.02722168,-0.14440918,0.880126953,-69.15283203,28.99169922,36.56005859
833808,-0.05065918,-0.165649414,0.910766602,-61.76757813,22.27783203,39.0625
833834,-0.065673828,-0.143310547,0.932250977,-61.09619141,19.04296875,43.33496094
833860,-0.085449219,-0.194702148,0.918945313,-68.84765625,21.72851563,57.73925781
833886,-0.108886719,-0.290893555,0.915405273,-60.72998047,17.51708984,52.30712891
833913,-0.117431641,-0.303955078,0.899169922,-54.26025391,10.62011719,48.88916016
833939,-0.137695313,-0.28515625,0.876953125,-56.82373047,-0.549316406,47.48535156
833965,-0.143188477,-0.327514648,0.921020508,-63.23242188,-2.624511719,50.96435547
833991,-0.161499023,-0.370849609,0.913452148,-64.39208984,1.220703125,49.68261719
834018,-0.179931641,-0.437988281,0.868408203,-59.20410156,0.610351563,46.20361328
834044,-0.167358398,-0.473510742,0.807495117,-55.23681641,-2.502441406,45.53222656
834070,-0.183837891,-0.447875977,0.786254883,-54.62646484,1.525878906,44.06738281
834096,-0.191162109,-0.463256836,0.782104492,-56.88476563,8.239746094,42.11425781
834122,-0.225219727,-0.50390625,0.780761719,-53.83300781,13.85498047,40.71044922
834149,-0.246582031,-0.519287109,0.746826172,-50.84228516,14.28222656,39.0625
834175,-0.26574707,-0.562744141,0.730712891,-43.27392578,12.93945313,37.17041016
834201,-0.301635742,-0.541992188,0.70690918,-37.109375,12.32910156,35.40039063
834227,-0.323852539,-0.511352539,0.689453125,-38.75732422,10.13183594,33.93554688
834253,-0.331787109,-0.591674805,0.709106445,-39.00146484,9.399414063,33.08105469
834279,-0.353515625,-0.619750977,0.719604492,-28.74755859,6.8359375,31.55517578
834306,-0.374511719,-0.630004883,0.724487305,-14.46533203,1.159667969,29.90722656
834332,-0.389404297,-0.581665039,0.703857422,-9.216308594,-1.403808594,26.97753906
834358,-0.395874023,-0.602172852,0.713623047,-9.033203125,-1.770019531,23.86474609
834384,-0.439453125,-0.630126953,0.674560547,-5.432128906,-12.02392578,19.65332031
834410,-0.445556641,-0.547851563,0.748413086,-7.873535156,8.544921875,11.65771484
834437,-0.406494141,-0.596679688,0.723144531,-4.8828125,-1.708984375,16.29638672
834463,-0.413696289,-0.596313477,0.714355469,1.770019531,-5.310058594,13.00048828
834489,-0.426757813,-0.564819336,0.704223633,1.159667969,-7.019042969,12.63427734
834515,-0.401000977,-0.575439453,0.710205078,-1.281738281,-7.751464844,12.45117188
834542,-0.4140625,-0.580688477,0.720092773,-1.037597656,-2.075195313,7.141113281
834568,-0.411132813,-0.572021484,0.706176758,-0.244140625,-3.90625,7.385253906
834594,-0.403076172,-0.54296875,0.694824219,-0.183105469,-9.765625,6.164550781
834620,-0.399047852,-0.531494141,0.682983398,-4.39453125,-9.094238281,6.164550781
834646,-0.395141602,-0.574707031,0.704711914,-7.141113281,-6.652832031,6.042480469
834672,-0.409179688,-0.595581055,0.698120117,1.220703125,-6.103515625,3.967285156
834698,-0.417114258,-0.518920898,0.674438477,6.408691406,-8.605957031,0.48828125
834725,-0.407348633,-0.520385742,0.689941406,2.868652344,-8.911132813,0.427246094
834751,-0.405639648,-0.552246094,0.701416016,-0.854492188,-5.249023438,0.610351563
834777,-0.410644531,-0.566650391,0.697143555,2.258300781,-6.469726563,-1.159667969
834803,-0.406860352,-0.552001953,0.696289063,4.699707031,-8.483886719,-3.051757813
834829,-0.402709961,-0.518310547,0.690917969,3.540039063,-6.713867188,-3.967285156
834856,-0.40234375,-0.53137207,0.698486328,1.159667969,-4.333496094,-3.662109375
834882,-0.40625,-0.537719727,0.696044922,1.098632813,-4.333496094,-3.41796875
834908,-0.401977539,-0.547485352,0.699829102,1.831054688,-3.845214844,-2.563476563
834934,-0.404663086,-0.533691406,0.697265625,3.295898438,-1.892089844,-2.563476563
834960,-0.405151367,-0.515869141,0.69921875,2.624511719,-1.892089844,-2.563476563
834987,-0.404296875,-0.532714844,0.71105957,1.892089844,-2.44140625,-2.502441406
835013,-0.443847656,-0.560180664,0.743652344,1.220703125,-1.708984375,-2.685546875
835039,-0.409057617,-0.529418945,0.708251953,4.150390625,-6.8359375,-2.990722656
835065,-0.405639648,-0.526123047,0.699707031,2.075195313,-5.37109375,-2.9296875
835092,-0.405395508,-0.544067383,0.712402344,1.403808594,-4.39453125,-2.807617188
835118,-0.409057617,-0.53894043,0.717895508,2.807617188,-4.699707031,-2.44140625
835144,-0.407958984,-0.539306641,0.701049805,3.601074219,-7.873535156,-2.868652344
835170,-0.408203125,-0.521484375,0.698242188,3.845214844,-8.361816406,-4.028320313
835196,-0.407592773,-0.519287109,0.720947266,1.647949219,-6.408691406,-3.723144531
835223,-0.40637207,-0.526733398,0.719482422,1.892089844,-5.981445313,-3.662109375
835249,-0.407104492,-0.525634766,0.704223633,2.502441406,-6.469726563,-3.112792969
835275,-0.404418945,-0.528808594,0.70690918,2.014160156,-6.408691406,-2.9296875
835301,-0.403686523,-0.530761719,0.705078125,2.014160156,-5.737304688,-2.9296875
835328,-0.400390625,-0.529174805,0.712158203,2.624511719,-5.981445313,-2.624511719
835354,-0.40234375,-0.537231445,0.712524414,2.9296875,-5.981445313,-2.807617188
835380,-0.402832031,-0.531982422,0.702148438,3.662109375,-6.103515625,-2.9296875
835406,-0.401245117,-0.531738281,0.703369141,2.258300781,-5.493164063,-3.540039063
835433,-0.407958984,-0.53894043,0.722412109,2.136230469,-4.8828125,-4.455566406
835459,-0.410522461,-0.518920898,0.715209961,3.112792969,-5.920410156,-4.8828125
835485,-0.403930664,-0.52355957,0.698120117,0.183105469,-7.385253906,-5.37109375
